#   1 XWIN_IMAGE             Windowed position estimate along x                         [pixel]
#   2 YWIN_IMAGE             Windowed position estimate along y                         [pixel]
#   3 ALPHA_J2000            Right ascension of barycenter (J2000)                      [deg]
#   4 DELTA_J2000            Declination of barycenter (J2000)                          [deg]
#   5 MAG_AUTO               Kron-like elliptical aperture magnitude                    [mag]
#   6 FWHM_IMAGE             FWHM assuming a gaussian core                              [pixel]
#   7 ELONGATION             A_IMAGE/B_IMAGE                                           
#   8 MAG_APER               Fixed aperture magnitude vector                            [mag]
#  13 MAGERR_APER            RMS error vector for fixed aperture mag.                   [mag]
#  18 FLUX_APER              Flux vector within fixed circular aperture(s)              [count]
#  23 FLUXERR_APER           RMS error vector for aperture flux(es)                     [count]
   120.5267     14.4733 213.2240786 -10.2770772  99.0000     1.51    2.643  -7.1990  99.0000  99.0000  99.0000  99.0000   2.0096  99.0000  99.0000  99.0000  99.0000     757.8852    -492.7398    -1274.843    -1925.459    -1186.535     1402.462      2335.31     3273.738      4210.04     4687.339
   242.5048    239.4952 213.2196022 -10.2689517  -7.4948     1.51    2.646  -6.9768  99.0000  99.0000  99.0000  99.0000   2.3365  99.0000  99.0000  99.0000  99.0000     617.6228    -291.0963    -2642.047    -4210.527    -6622.147     1328.811     2022.438     2695.202     3362.984     3718.086
   167.3829    239.7934 213.2223731 -10.2689526  -8.2326     0.96    1.998  -7.6167  -7.0765  99.0000  99.0000  99.0000   1.3083   3.2706  99.0000  99.0000  99.0000     1113.432     677.0292    -1739.551    -4407.987    -4837.513     1341.368     2038.948      2722.02      3392.76     3701.518
   294.0196    238.5413 213.2177124 -10.2689868  -8.3789     0.96    1.999  -7.9364  -8.9232  -8.8101  -8.5669  -8.3128   1.0219   0.6667   0.9758   1.5072   2.0744     1494.726     3709.153      3342.22     2671.518     2114.012     1406.442     2277.163     3003.112     3707.552     4037.963
   215.5308    238.0000 213.2205921 -10.2690057  -7.8400     0.96    1.997  99.0000  -8.3687  -7.2354  99.0000  99.0000  99.0000   1.1452   4.3456  99.0000  99.0000    -188.3863     2225.854     783.7095    -494.2454    -1902.145      1406.44     2347.244     3135.999      3852.42     4200.738
   236.6065    235.3644 213.2198187 -10.2691009  99.0000     5.53    1.767  99.0000  99.0000  99.0000  99.0000  99.0000  99.0000  99.0000  99.0000  99.0000  99.0000    -98.36613    -1926.884    -3111.279     -6863.46     -8572.75     1414.364     2347.243     3278.854      4214.02     4684.954
   169.5032    235.4968 213.2222812 -10.2690961  99.0000     1.51    2.646  99.0000  99.0000  99.0000  99.0000  99.0000  99.0000  99.0000  99.0000  99.0000  99.0000    -31.89403    -3851.293    -2569.927    -3386.965    -4475.008      1394.47      2335.31     3268.613     4202.068     4696.866
   146.0000    235.4424 213.2231437 -10.2690980  -8.0136     0.96    1.990  -7.5977  -5.8049  99.0000  99.0000  99.0000   1.4038  12.1459  99.0000  99.0000  99.0000     1094.187     209.8738    -1306.614    -2807.343    -1846.983     1414.365     2347.243      3277.15      4214.02     4682.568
   319.9870    235.2102 213.2167746 -10.2691301  -7.8836     1.51    2.632  -8.0333  -7.2191  -8.0799  -9.1297  -9.2497   0.8717   2.8255   1.7091   0.8113   0.8000     1634.326     772.0175     1705.987     4486.117     5010.352     1311.884     2008.576     2684.816     3351.335     3690.937
   194.2422    233.7276 213.2213733 -10.2691600  -7.6806     2.20    1.893  -8.2828  -8.3661  -8.5700  -8.3396  -7.8383   0.7427   1.1457   1.3291   2.1133   3.7239     2056.463     2220.446      2679.19     2166.905     1365.585     1406.442     2342.478     3278.855     4216.671     4682.568
   164.9124    232.9960 213.2224624 -10.2691862  -6.0915     0.96    1.987  99.0000  99.0000  99.0000  99.0000  99.0000  99.0000  99.0000  99.0000  99.0000  99.0000    -342.0516    -723.9647    -3361.443    -6265.126    -8305.576     1414.364     2347.243      3277.15     4211.367     4680.181
   112.5398    232.4602 213.2243716 -10.2692057  -7.7638     1.51    2.639  -8.3931  -7.3980  99.0000  99.0000  99.0000   0.6747   2.7975  99.0000  99.0000  99.0000      2276.43     910.2986     -2561.27    -7837.735    -10832.84     1414.366     2344.862     3280.558     4217.996     4686.146
   209.4062    231.4062 213.2208168 -10.2692438  -7.3475     1.50    2.606  -8.0719  -6.0565  99.0000  99.0000  99.0000   0.9020   9.6142  99.0000  99.0000  99.0000     1693.349     264.6001    -1510.225    -515.0803    -1259.155     1406.442     2342.477     3283.963      4219.32     4674.207
   149.3000    231.0954 213.2230519 -10.2692405  -7.8226     1.51    2.646  -7.9745  -8.5080  -8.2702  -8.3052  -7.1657   0.9726   0.9982   1.7444   2.1737   6.9437     1548.039     2530.411     2032.814     2099.389     734.9702     1386.434     2325.721     3265.193     4202.069     4699.245
   105.0873    231.2949 213.2246451 -10.2692478  -7.4082     3.63    1.839  -7.8810  -6.7479  99.0000  99.0000  99.0000   1.0723   5.0698  99.0000  99.0000  99.0000     1420.389     500.2412     -283.745    -3769.246    -5244.925     1402.463      2335.31     3270.322     4200.739     4695.676
    10.6715    231.8848 213.2281164 -10.2692223  -9.8399     0.97    2.000  -8.9058  -9.3242  -9.7284 -10.0970 -10.2988   0.4185   0.4731   0.4571   0.4188   0.3856     3650.064     5366.122     7786.719     10934.21     13167.59     1406.444     2337.705     3277.153     4216.674     4675.407
   141.6896    230.0740 213.2233019 -10.2692919  -8.4434     2.53    4.512  -8.0978  99.0000  99.0000  99.0000  99.0000   0.8757  99.0000  99.0000  99.0000  99.0000     1734.308    -309.1984    -2246.773    -2181.343    -1547.785     1398.473      2340.09     3270.322     4206.056     4694.486
   121.5178    230.4822 213.2240422 -10.2692771  99.0000     1.51    2.644  -7.6062  99.0000  99.0000  99.0000  99.0000   1.3733  99.0000  99.0000  99.0000  99.0000     1102.728    -681.5336    -3810.562    -5239.974     -7550.23     1394.471      2340.09     3272.031     4204.727     4692.105
   108.5700    230.5700 213.2245173 -10.2692740  -7.4306     1.51    2.623  -7.5530  -5.1896  99.0000  99.0000  99.0000   1.4629  21.4059  99.0000  99.0000  99.0000     1049.993     119.0841    -3176.503    -11085.16    -15137.76     1414.365     2347.243     3280.558     4217.996     4681.375
   206.4870    230.0000 213.2209240 -10.2692946  -8.4938     0.96    1.999  -7.2192  99.0000  99.0000  99.0000  99.0000   1.9782  99.0000  99.0000  99.0000  99.0000      772.105    -195.6452    -1821.812    -4911.804    -4703.204     1406.441     2347.243     3280.558      4219.32     4675.402
   195.4475    229.4475 213.2213291 -10.2693145  -6.0570     1.51    2.633  -6.8659  99.0000  99.0000  99.0000  99.0000   2.7543  99.0000  99.0000  99.0000  99.0000     557.6648    -1290.783    -1304.123    -3801.014    -5563.614     1414.364     2344.861     3280.558     4215.345     4686.146
   111.9343    229.3667 213.2243939 -10.2693174  -8.4670     2.53    4.452  -6.0109  99.0000  99.0000  99.0000  99.0000   6.0199  99.0000  99.0000  99.0000  99.0000     253.7253    -2183.372    -2978.051    -8246.553     -10575.1      1406.44     2344.861     3283.963     4215.345     4683.761
    85.2908    227.9105 213.2253716 -10.2693700  99.0000     3.63    1.852  -7.5073  99.0000  99.0000  99.0000  99.0000   1.5128  99.0000  99.0000  99.0000  99.0000     1006.784    -486.9786    -2711.939    -3645.372     -5367.21     1402.463      2335.31     3268.613     4200.739     4694.486
   307.4334    227.5666 213.2172195 -10.2693824  -5.6167     1.51    2.626  -6.5020  99.0000  99.0000  99.0000  99.0000   3.8511  99.0000  99.0000  99.0000  99.0000     398.8455    -2546.017    -1445.514    -2546.104    -3456.932     1414.364     2349.622     3280.558     4217.996     4688.531
   201.0000    235.4332 213.2211253 -10.2690984  -7.8150     0.96    1.987  -7.7134  -7.7525  -7.6262  -8.5624  -9.0813   1.2619   2.0202   3.1685   1.7191   1.1846     1217.212     1261.786     1123.237     2660.472     4290.527     1414.365     2347.244      3277.15     4211.368     4680.182
   109.4339    227.4339 213.2244856 -10.2693872  99.0000     1.51    2.626  99.0000  99.0000  99.0000  99.0000  99.0000  99.0000  99.0000  99.0000  99.0000  99.0000    -909.4141    -5147.225    -5486.777    -8947.722    -9007.128     1414.364     2349.622     3280.558     4217.996     4688.531
   265.4053    226.5947 213.2187618 -10.2694175  -5.5972     1.50    2.605  -5.6640  99.0000  99.0000  99.0000  99.0000   8.2860  99.0000  99.0000  99.0000  99.0000     184.3339    -871.9462    -3979.691    -2484.256    -2662.984      1406.44     2342.477     3290.762      4219.32     4674.207
   223.6311    224.3287 213.2203177 -10.2694749  -9.0632     3.48    4.203  -8.0857  -7.5155  -8.6970  -9.0501  -8.8852   0.8906   2.5079   1.1842   1.0991   1.4172     1715.048     1014.353     3011.714     4169.114     3581.782     1406.442     2342.478     3283.964     4219.321     4674.208
   184.4847    226.4847 213.2217314 -10.2694215  99.0000     1.51    2.645  99.0000  99.0000  99.0000  99.0000  99.0000  99.0000  99.0000  99.0000  99.0000  99.0000    -301.2929     -2362.68    -6627.323    -9415.565    -8227.244     1402.461      2335.31     3275.444     4204.727     4692.105
   149.3284    225.0171 213.2230216 -10.2694745  -8.2866     2.54    4.246  -7.5674  99.0000  99.0000  99.0000  99.0000   1.4395  99.0000  99.0000  99.0000  99.0000     1064.049    -891.6591    -2362.463     -3076.76    -2392.804     1410.409     2344.861     3283.963     4217.996     4683.761
   236.4338    224.5662 213.2198250 -10.2694908  99.0000     1.51    2.626  99.0000  99.0000  99.0000  99.0000  99.0000  99.0000  99.0000  99.0000  99.0000  99.0000    -625.8853    -2800.117     -3157.07    -5782.797     -7464.18     1414.364     2349.622     3280.558     4217.996     4688.531
   308.5248    223.4752 213.2171794 -10.2695301  99.0000     1.51    2.643  -7.1078  99.0000  99.0000  99.0000  99.0000   2.1732  99.0000  99.0000  99.0000  99.0000     696.8507    -727.9805    -980.9361    -3263.174    -4742.444     1394.471      2335.31     3268.613      4210.04     4689.722
   185.4911    223.5089 213.2216945 -10.2695290  99.0000     1.51    2.645  99.0000  99.0000  99.0000  99.0000  99.0000  99.0000  99.0000  99.0000  99.0000  99.0000    -91.08898     -3224.94    -4785.366    -8497.207     -10741.4     1402.461      2335.31     3268.613     4199.408     4694.486
   289.0000    222.6091 213.2178959 -10.2695614  -8.0929     0.95    1.964  -6.7563  -7.4445  -5.2852  99.0000  99.0000   3.0299   2.6772  27.4240  99.0000  99.0000     504.1119     950.2043     130.0461    -3486.888    -4528.832     1406.441     2342.478     3283.963      4219.32      4670.62
   213.2341    222.0933 213.2207012 -10.2695674  -7.2139     1.51    2.631  -7.5445  99.0000  -6.7344  -8.4115  -8.5040   1.4577  99.0000   7.2114   1.9773   2.0196     1041.878    -260.9921      494.038     2315.201     2521.119     1398.473      2340.09     3280.558     4215.346     4688.531
    91.5864    222.5864 213.2251406 -10.2695623  99.0000     1.51    2.612  99.0000  99.0000  99.0000  99.0000  99.0000  99.0000  99.0000  99.0000  99.0000  99.0000    -703.8777    -2751.632    -7655.024    -10821.26    -12615.11      1406.44     2342.477     3280.558      4219.32     4678.987
   247.4862    221.4862 213.2194194 -10.2696020  -7.3608     1.51    2.645  -7.4509  99.0000  99.0000  99.0000  99.0000   1.5935  99.0000  99.0000  99.0000  99.0000     955.8125    -1299.912     -5832.57    -7616.062    -9793.867     1402.462      2335.31     3272.031     4202.068     4692.105
   205.4928    226.4928 213.2209605 -10.2694212  -7.9236     1.51    2.646  -8.5045  -7.8013  -6.4032  -7.4158  99.0000   0.6038   1.9216   9.7482   4.9285  99.0000      2522.34     1319.814       364.14     925.3525    -1920.716     1402.464     2335.311     3268.613     4199.408     4694.486
   141.5202    222.0000 213.2233081 -10.2695834  -8.2503     0.96    1.999  -7.3049  -6.5170  -8.1225  -8.4065  -6.7573   1.8281   6.3039   2.0081   1.9896  10.0630     835.4932      404.372     1774.118      2304.56     504.5687     1406.441     2347.243     3280.559     4221.969     4675.403
    23.0000    221.5276 213.2276576 -10.2696005  -7.1273     0.96    1.998  99.0000  99.0000  99.0000  99.0000  99.0000  99.0000  99.0000  99.0000  99.0000  99.0000    -1285.841    -6346.243    -11130.19    -17447.74    -20652.21      1406.44     2342.477     3280.558      4219.32     4675.402
   165.6743    222.0508 213.2224217 -10.2695816  -8.3297     2.53    4.592  -8.0408  99.0000  99.0000  99.0000  99.0000   0.9255  99.0000  99.0000  99.0000  99.0000      1645.62    -1800.443    -201.6031    -1384.416    -438.0828     1402.463     2342.477     3280.558     4217.996     4684.954
   187.7217    218.9848 213.2216126 -10.2696923  -8.2035     3.64    1.896  -8.5465  -7.8689  -7.3824  99.0000  99.0000   0.5842   1.8130   3.9742  99.0000  99.0000     2621.817     1404.595     897.3732    -403.4163    -990.9601      1410.41     2344.862     3283.963      4219.32     4684.954
   157.4992    219.5008 213.2227217 -10.2696737  -7.2406     1.51    2.646  -6.8522  -7.9449  -6.9023  99.0000  99.0000   2.7344   1.6766   6.1426  99.0000  99.0000     550.6479     1506.442     576.6702    -2997.373    -4217.943     1386.433      2325.72     3261.768     4196.746     4699.245
    97.9341    219.0051 213.2249237 -10.2696736  -7.7661     1.51    2.646  -8.0220  -8.0449  -7.6899  99.0000  99.0000   0.9309   1.5354   2.9801  99.0000  99.0000     1617.347     1651.804      1191.12    -845.1154    -2189.268     1386.434     2335.311     3268.614     4202.068     4696.866
   277.0314    218.8780 213.2183555 -10.2697106  -8.6732     1.51    2.644  -8.3340  -8.5965  -8.7521  -8.3425  99.0000   0.7025   0.9257   1.1215   2.1044  99.0000     2155.694     2745.364     3168.439     2172.638    -464.5914     1394.472     2340.092     3272.032     4210.041     4692.105
   194.5189    218.4811 213.2213632 -10.2697105  99.0000     1.51    2.644  -6.7685  99.0000  -8.4855  -8.4663  -8.7829   2.9705  99.0000   1.4337   1.8753   1.5641     509.8122    -614.5831     2478.519     2435.015     3259.419     1394.471      2340.09     3272.031     4204.728     4694.487
    76.0000    218.4675 213.2257126 -10.2697110  -6.9750     0.96    1.997  -7.0706  99.0000  99.0000  99.0000  99.0000   2.2810  99.0000  99.0000  99.0000  99.0000     673.3771    -1750.691    -3122.095    -6145.952    -8038.786     1414.364     2351.999     3283.963      4219.32     4680.181
   302.3917    217.7619 213.2174147 -10.2697279  -8.7594     2.96    3.077  -8.5015  -6.7111  99.0000  99.0000  99.0000   0.6072   5.2719  99.0000  99.0000  99.0000     2515.448     483.5293    -2017.485    -2294.495    -1565.232     1406.443     2347.243     3280.558      4219.32     4677.792
   266.4881    218.0000 213.2187221 -10.2697279  -8.3481     0.96    2.000  99.0000  99.0000  99.0000  99.0000  99.0000  99.0000  99.0000  99.0000  99.0000  99.0000    -110.4007    -793.0732    -3992.179    -5822.357    -7069.953      1406.44     2347.243     3280.558      4219.32     4677.792
   122.0000    217.4223 213.2240245 -10.2697487  -8.8021     0.96    1.982  -8.1223  -2.2126  99.0000  99.0000  99.0000   0.8610 332.1750  99.0000  99.0000  99.0000     1773.883     7.673986    -4642.705    -4053.439    -3328.619     1406.442     2347.243     3280.558      4216.67     4677.792
   109.4498    217.5502 213.2244850 -10.2697441  -6.3712     1.51    2.634  -8.0049  99.0000  99.0000  99.0000  99.0000   0.9648  99.0000  99.0000  99.0000  99.0000     1592.073    -791.6061    -1963.659    -4126.181    -4179.427     1414.365     2349.622     3280.558     4220.644     4686.146
   113.4385    216.4385 213.2243387 -10.2697843  -6.9369     1.51    2.629  -7.2088  -2.8142  99.0000  99.0000  99.0000   1.9972 190.6676  99.0000  99.0000  99.0000     764.7791     13.35581    -617.5619    -335.7575    -1150.901     1406.441     2344.861     3283.963     4215.345     4688.531
   136.5954    214.9675 213.2234888 -10.2698374  99.0000     2.60    1.573  -6.2366  99.0000  99.0000  99.0000  99.0000   4.9178  99.0000  99.0000  99.0000  99.0000     312.3371    -1385.504    -2155.875    -8229.101    -8777.676     1414.364     2344.861     3278.854      4214.02     4682.568
    91.5143    215.5143 213.2251432 -10.2698176  99.0000     1.51    2.645  -5.9266  99.0000  99.0000  99.0000  99.0000   6.4873  99.0000  99.0000  99.0000  99.0000      234.779    -863.3017    -2397.306    -4813.969    -6117.729     1402.462      2335.31     3275.444     4204.727     4692.105
    66.8068    214.5148 213.2260499 -10.2698537  99.0000     5.01    1.842  -7.7550  -7.1009  99.0000  99.0000  99.0000   1.2111   3.6815  99.0000  99.0000  99.0000     1264.748     692.4091     -1911.17     -3738.04    -4950.511     1410.409     2347.243     3282.261     4217.996     4678.987
   296.5399    214.4601 213.2176192 -10.2698557  -8.0516     1.51    2.639  -7.7457  -7.7339  99.0000  99.0000  99.0000   1.2250   2.0531  99.0000  99.0000  99.0000      1253.92     1240.351    -536.1605    -1865.326    -590.9704     1414.365     2344.862     3280.558     4217.996     4687.339
   282.5245    215.0000 213.2181336 -10.2698362  -7.7600     0.96    1.998  -7.3489  -7.5017  -5.8224  99.0000  99.0000   1.7555   2.5399  16.7045  99.0000  99.0000     870.0595     1001.576     213.2766     -1194.28    -1219.219     1406.441     2342.478     3280.558      4219.32     4675.402
   196.7582    215.0045 213.2212568 -10.2698513  -8.1200     1.51    2.615  -7.9417  -8.1350  -8.4207  -7.2543  99.0000   1.0226   1.4203   1.5242   5.7460  99.0000     1502.065     1794.812     2334.917     797.4599    -484.4009     1414.365     2347.244     3277.151      4219.32     4683.761
    96.6090    214.0210 213.2249563 -10.2698716  -7.4665     2.85    1.599  -8.1784  -8.2910  99.0000  99.0000  99.0000   0.8177   1.2289  99.0000  99.0000  99.0000     1867.898     2072.141    -948.3021    -3434.686     -5763.99     1406.442     2344.863     3280.558     4220.644     4682.568
   203.0000    213.4592 213.2210519 -10.2698919  -8.5712     0.96    1.995  -7.8522  99.0000  99.0000  -5.9431  -6.3510   1.1043  99.0000  99.0000  19.2362  14.6450     1383.167    -284.7533    -2009.741     238.3555     347.0583     1406.442     2347.243     3283.963     4221.968     4680.181
   244.2746    211.8339 213.2195372 -10.2699505  -7.8159     3.20    1.897  -8.4559  99.0000  99.0000  99.0000  99.0000   0.6333  99.0000  99.0000  99.0000  99.0000      2411.92    -406.5703    -1811.736    -2512.432    -4888.875     1406.443     2342.477     3283.963      4219.32     4683.761
   134.4818    213.0000 213.2235664 -10.2699084  -7.1632     0.96    1.999  99.0000  99.0000  99.0000  99.0000  99.0000  99.0000  99.0000  99.0000  99.0000  99.0000     -331.289    -2554.522    -2944.639    -4390.342    -7091.809      1406.44     2347.243     3280.558     4221.968     4675.402
    81.5324    212.5324 213.2255095 -10.2699253  99.0000     1.51    2.641  99.0000  99.0000  99.0000  99.0000  99.0000  99.0000  99.0000  99.0000  99.0000  99.0000    -524.5693    -337.9538    -1869.637    -3568.436    -5712.684     1402.461      2335.31      3277.15     4215.345     4687.339
   305.2494    210.8378 213.2172996 -10.2699865  -8.4726     4.66    1.885  -8.4045  -7.9939  -7.4578  -8.6123  -8.7789   0.6640   1.6175   3.7038   1.6429   1.5666       2300.4     1575.979      961.904     2785.611     3247.665     1406.442     2347.244     3280.559     4214.021     4684.955
   255.0883    211.0410 213.2191436 -10.2699640  -8.0341     0.96    1.996  -8.1391  -7.6782  99.0000  99.0000  99.0000   0.8526   2.1633  99.0000  99.0000  99.0000     1801.495     1178.323    -155.5662    -3271.326     -4441.31     1414.366     2347.244     3283.963      4216.67     4680.181
   235.4047    211.4047 213.2198628 -10.2699660  -7.0298     1.42    1.593  -8.2267  -8.0977  99.0000  99.0000  99.0000   0.7821   1.4669  99.0000  99.0000  99.0000     1952.827     1734.185    -752.4282     -3379.96    -2259.711     1406.442     2342.478     3290.762      4219.32     4674.207
   314.4478    210.4478 213.2169620 -10.2700006  -8.7877     1.51    2.633  -8.4007  -8.5894  -9.4624  -9.9595  -9.9964   0.6700   0.9336   0.5845   0.4752   0.5106     2292.433     2727.511     6094.969     9633.819      9967.25     1414.366     2344.863     3280.561     4215.349     4686.149
   301.1067    210.9717 213.2174395 -10.2699806  -6.2069     0.96    1.988  -7.9682  -8.6883  -9.2266  -9.3735  -9.1131   0.9980   0.8533   0.7256   0.8150   1.1510     1539.123     2987.483     4905.019     5615.578     4418.036     1414.365     2347.245     3277.152     4214.021     4682.569
   158.2876    209.9458 213.2227033 -10.2700351  -8.6401     0.97    2.000  -7.9352  -6.8995  -7.6658  99.0000  99.0000   1.0230   4.4230   3.0580  99.0000  99.0000     1493.053     575.1655     1165.023    -1365.906    -4404.426     1406.442     2342.477     3280.559      4219.32     4675.402
   137.9970    209.0537 213.2234373 -10.2700383  -8.1644     0.96    1.972  -8.1609  -4.5716  -6.5617  99.0000  99.0000   0.8310  37.6698   8.4813  99.0000  99.0000     1838.045     67.39459     421.3702    -2380.137    -3035.627     1406.442     2337.701     3290.762     4224.614     4668.226
    72.3777    218.0000 213.2258455 -10.2697279  -7.9175     0.95    1.955  -7.1539  99.0000  99.0000  99.0000  99.0000   2.1009  99.0000  99.0000  99.0000  99.0000      727.011    -1873.693    -4805.709    -10565.24    -12170.62     1406.441     2347.243     3280.558      4216.67     4677.792
   229.9812    213.3157 213.2200618 -10.2698970  -8.2001     2.53    4.103  -7.5397  -6.8241  99.0000  99.0000  99.0000   1.4684   4.7359  99.0000  99.0000  99.0000     1037.224     536.6063    -1646.912    -952.7355     -841.596     1402.463     2340.091     3282.261      4216.67     4678.987
   283.1038    209.0584 213.2181524 -10.2700631  -8.6682     2.51    3.913  -8.5065  -8.7684  -8.6196  99.0000  99.0000   0.6027   0.7910   1.2691  99.0000  99.0000     2526.988     3216.241     2804.395    -693.6185    -2035.183     1402.464     2342.479     3277.151      4216.67     4681.375
   142.0145    208.5909 213.2232737 -10.2700529  -8.1393     0.96    1.994  -7.8113  99.0000  99.0000  99.0000  99.0000   1.1466  99.0000  99.0000  99.0000  99.0000     1332.075     -8.61854    -581.6274    -1086.562    -1890.343     1406.441     2347.243     3280.558     4221.968     4677.792
   303.7711    207.8847 213.2173637 -10.2701069  -8.1049     1.51    2.646  -8.4439  -8.6039  -8.6654  99.0000  99.0000   0.6312   0.9175   1.2134  99.0000  99.0000     2385.485     2764.254     2925.352     -1119.12     -2478.24     1386.435     2335.312     3268.615     4202.068     4696.866
   292.0607    207.8553 213.2177689 -10.2701056  -7.9234     1.51    2.638  -8.2137  -7.6340  99.0000  99.0000  99.0000   0.7960   2.2508  99.0000  99.0000  99.0000      1929.65     1131.409    -2692.872    -2346.045    -3482.428     1414.366     2344.862     3280.558     4217.996     4688.531
   174.0000    206.5234 213.2221162 -10.2701423  -6.4206     0.96    1.998  -6.5816  99.0000  99.0000  99.0000  99.0000   3.5589  99.0000  99.0000  99.0000  99.0000      429.174    -1176.652    -399.3419    -2543.084    -2761.124     1406.441     2342.477     3280.558     4221.968     4675.402
   165.0000    206.5597 213.2224465 -10.2701410  -7.9459     0.96    1.989  -7.7629  -7.3690  99.0000  99.0000  99.0000   1.2057   2.8760  99.0000  99.0000  99.0000      1273.98     886.3404    -5421.385    -7262.103    -7983.399     1414.365     2347.244      3277.15      4214.02     4682.568
    96.3924    206.3924 213.2249642 -10.2701470  -5.7253     1.50    2.593  -7.3717  99.0000  99.0000  99.0000  99.0000   1.7190  99.0000  99.0000  99.0000  99.0000     888.5578    -1082.116     -3258.97    -5357.855    -5714.593     1406.441     2342.477     3283.963      4219.32     4674.207
    77.4634    206.5366 213.2256589 -10.2701418  -7.0045     1.51    2.640  -7.2317  99.0000  99.0000  99.0000  99.0000   1.9500  99.0000  99.0000  99.0000  99.0000     781.0793    -118.7178    -3172.437    -4398.944    -4497.567     1402.462      2340.09     3280.558     4215.345     4686.146
   151.5810    205.4190 213.2229389 -10.2701822  -7.6750     1.51    2.616  -6.7856  99.0000  99.0000  99.0000  99.0000   2.9659  99.0000  99.0000  99.0000  99.0000     517.8911    -196.3255    -1354.154    -3018.947    -3276.572     1414.364     2347.243      3277.15     4220.644     4683.761
   222.4746    204.5254 213.2203373 -10.2702145  -7.3867     1.51    2.643  -7.5945  99.0000  99.0000  99.0000  99.0000   1.3961  99.0000  99.0000  99.0000  99.0000      1090.92    -626.0814    -1793.424    -2690.606    -3525.732     1402.463      2335.31     3270.322      4210.04     4689.722
   280.4328    204.0000 213.2182103 -10.2702334  -7.5661     0.96    1.986  -6.5186  -6.6286  -6.5334  99.0000  99.0000   3.7927   5.6878   8.6693  99.0000  99.0000      404.985     448.1671     410.5272    -2290.022    -3136.155     1414.364     2347.243      3277.15     4211.367     4680.181
   249.5502    203.5502 213.2193436 -10.2702497  99.0000     1.51    2.634  99.0000  99.0000  99.0000  99.0000  99.0000  99.0000  99.0000  99.0000  99.0000  99.0000    -322.7189    -923.1873    -863.7706     -3442.24    -4750.792     1414.364     2349.622     3280.558     4220.644     4686.146
    69.5085    202.5085 213.2259508 -10.2702873  -5.7098     1.51    2.645  -6.9393  99.0000  99.0000  99.0000  99.0000   2.5528  99.0000  99.0000  99.0000  99.0000     596.6302      -1698.4    -6949.613    -10944.56    -13589.43     1402.462      2335.31     3268.613     4199.408     4694.486
   294.4474    201.4474 213.2176960 -10.2703256  -6.4738     1.51    2.633  -7.7020  -7.4336  -7.8618  99.0000  99.0000   1.2753   2.7071   2.5530  99.0000  99.0000     1204.444     940.6805     1395.486    -187.9079    -671.5116     1414.365     2344.862     3280.559     4215.345     4686.146
   206.4056    198.2583 213.2209096 -10.2704344  -8.8125     2.49    5.087  -8.4141  -8.5348  -8.8829  -8.2939  99.0000   0.6581   0.9798   0.9969   2.2055  99.0000     2320.813     2593.687     3573.881      2077.57    -112.5688     1406.442     2340.092      3280.56     4219.321     4681.375
   115.5911    198.5911 213.2242597 -10.2704287  99.0000     1.50    2.608  -6.3435  -6.3386  -7.5944  99.0000  99.0000   4.4313   7.4145   3.2694  99.0000  99.0000     344.6811      343.101     1090.821    -305.6678    -517.2788      1406.44     2342.477     3283.963      4219.32     4676.598
   190.4296    197.4296 213.2215132 -10.2704707  -6.0635     1.51    2.623  -7.9135  -6.7690  99.0000  99.0000  99.0000   1.0495   4.9979  99.0000  99.0000  99.0000     1463.575     510.0352    -940.0076    -443.2276    -1925.569     1414.365     2347.243     3280.558     4217.996     4681.375
   154.5197    197.5197 213.2228311 -10.2704674  -8.0017     1.51    2.644  -6.7312  99.0000  99.0000  99.0000  99.0000   3.0745  99.0000  99.0000  99.0000  99.0000      492.567    -299.8426    -1171.293    -357.3525    -607.6379     1394.471      2340.09     3272.031     4207.384     4692.105
   127.3912    197.6088 213.2238266 -10.2704642  99.0000     1.50    2.591  -7.5739  99.0000  99.0000  99.0000  99.0000   1.4269  99.0000  99.0000  99.0000  99.0000     1070.465    -1284.894    -1538.767    -979.9002    -1513.184     1406.441     2342.477     3283.963      4219.32     4674.207
   180.6076    197.0000 213.2218737 -10.2704862  -8.3479     0.95    1.965  -7.1581  99.0000  99.0000  99.0000  99.0000   2.0926  99.0000  99.0000  99.0000  99.0000     729.8873    -559.8254    -3325.106    -4174.906    -1836.858     1406.441     2342.477     3287.364      4219.32      4670.62
   105.5528    195.5528 213.2246281 -10.2705384  99.0000     1.51    2.633  -7.5370  -6.4443  99.0000  99.0000  99.0000   1.4845   6.7335  99.0000  99.0000  99.0000     1034.697     378.1877    -1466.491    -5066.582    -6162.033     1414.365     2344.861     3280.558     4215.345     4683.761
   190.4933    194.5067 213.2215109 -10.2705762  -8.5021     1.51    2.646  -7.7660  -8.0857  -7.3827  -6.0580  -4.0532   1.1921   1.4787   3.9548  17.2111 121.9384     1277.602     1715.131     897.5719     264.9773     41.80972     1402.463     2335.311     3268.614     4199.408     4694.486
   128.8345    193.9596 213.2237938 -10.2705924  -7.6335     3.64    1.867  -8.6158  99.0000  99.0000  99.0000  99.0000   0.5435  99.0000  99.0000  99.0000  99.0000      2794.59    -405.5155    -1454.229    -508.1982    -2538.185     1398.474     2332.916     3272.031     4215.345     4690.914
   138.9161    193.1675 213.2234151 -10.2706163  -8.7167     1.50    2.596  -8.2487  -7.6967  99.0000  99.0000  99.0000   0.7665   2.1180  99.0000  99.0000  99.0000     1992.808     1198.655    -3122.971    -4758.796    -3831.802     1406.442     2337.702     3294.156     4221.968     4671.816
   286.2626    191.8610 213.2179964 -10.2706717  -4.3432     3.59    1.942  -7.8989  99.0000  99.0000  99.0000  99.0000   1.0577  99.0000  99.0000  99.0000  99.0000     1444.037    -1146.426    -2824.625    -2208.854    -3269.154     1406.442     2344.861     3280.558      4216.67     4686.146
   146.5231    191.5231 213.2231245 -10.2706840  99.0000     1.51    2.643  -7.3121  99.0000  -8.0839  -8.0621  -7.8322   1.8005  99.0000   2.0752   2.7244   3.7506      841.089      -67.982     1712.296     1678.232     1357.943     1394.471      2340.09     3272.031      4210.04     4689.723
   309.5401    193.4599 213.2171421 -10.2706140  99.0000     1.51    2.638  -7.1649  99.0000  99.0000  99.0000  99.0000   2.0914  99.0000  99.0000  99.0000  99.0000     734.4509    -2471.772     -4418.81    -6990.418    -9079.193     1414.364     2344.861     3280.558     4217.996     4688.531
   297.5212    190.5212 213.2175832 -10.2707201  -6.9823     1.51    2.644  -7.8487  -5.8402  99.0000  99.0000  99.0000   1.0984  11.7450  99.0000  99.0000  99.0000     1378.779     216.8175    -235.5546    -3006.771    -4303.939     1394.471     2344.861     3272.031      4210.04     4692.105
   277.3597    190.3597 213.2183231 -10.2707260  -8.9805     1.49    2.555  -8.2867  -8.0675  -7.0822  99.0000  99.0000   0.7400   1.5099   5.2403  99.0000  99.0000     2063.928     1686.581      680.575    -42.84134    -1682.412     1406.442     2344.862     3283.963     4215.345     4688.531
    92.5763    193.5763 213.2251043 -10.2706098  99.0000     1.51    2.619  99.0000  99.0000  99.0000  99.0000  99.0000  99.0000  99.0000  99.0000  99.0000  99.0000    -269.8849    -2243.156     -5315.31    -7832.919    -9860.669     1414.364     2347.243      3277.15     4217.996     4681.375
   113.5633    191.0000 213.2243341 -10.2707028  -7.2057     0.96    1.988  -6.2820  99.0000  -7.9261  -6.6903  99.0000   4.7162  99.0000   2.4036   9.6474  99.0000     325.6863    -86.94729     1480.669     474.3696    -1163.641     1414.364     2347.243      3277.15      4214.02     4682.568
   247.3896    189.3896 213.2194229 -10.2707610  99.0000     1.50    2.590  -7.2177  99.0000  99.0000  99.0000  99.0000   1.9810  99.0000  99.0000  99.0000  99.0000     771.0142    -1069.177    -2532.912    -6058.806    -8489.927     1406.441     2342.477     3280.558      4219.32     4676.598
   212.5984    188.4016 213.2206997 -10.2707967  99.0000     1.50    2.601  -8.1911  -7.6191  -8.3817  -7.6900  -8.0192   0.8082   2.2749   1.5881   3.8515   3.1435     1889.914     1115.982     2252.661     1191.211     1613.182     1406.442     2337.702     3294.157     4224.614     4669.423
   293.8943    188.0080 213.2177276 -10.2708112  -8.2007     0.96    1.978  -7.9503  99.0000  -7.0733  -6.4120  99.0000   1.0089  99.0000   5.2833  12.4818  99.0000     1513.947    -37.76377     675.0286     367.1104    -1291.583     1406.442     2347.243     3283.963      4219.32     4673.012
   251.5057    187.4943 213.2192719 -10.2708294  -8.4388     1.51    2.646  -8.0611  -7.8607  99.0000  99.0000  99.0000   0.9084   1.8193  99.0000  99.0000  99.0000     1676.677     1394.052    -1164.719    -1745.565    -1875.795     1402.463     2335.311     3268.613     4202.068     4694.486
    94.4638    188.0000 213.2250350 -10.2708112  -8.0611     0.96    1.996  -8.3008  -6.7533  99.0000  99.0000  99.0000   0.7347   5.0706  99.0000  99.0000  99.0000     2090.747     502.7187    -938.5532    -3797.526    -5087.001     1414.366     2347.243     3283.963      4219.32     4682.568
   152.3833    186.6167 213.2229095 -10.2708611  -7.3304     1.50    2.583  -8.0938  -5.9344  -7.5731  99.0000  -5.2932   0.8840  10.7799   3.3271  99.0000  38.8082     1727.859     236.4684     1069.689    -304.8377     131.0025     1406.442     2347.243      3277.15     4221.968     4681.375
   274.3863    185.6137 213.2184322 -10.2708973  99.0000     1.50    2.586  -7.4449  -5.9002  -8.3884  -8.6082  -8.4848   1.6069  11.1028   1.5719   1.6512   2.0515     950.5161     229.1246     2266.466     2775.034     2476.888     1406.441     2342.477     3280.559     4219.321     4678.987
   117.6045    185.3955 213.2241858 -10.2709052  -7.1849     1.50    2.596  -8.1126  -7.4909  -8.7974  -7.1327  -8.3937   0.8688   2.5652   1.0819   6.4268   2.2287     1758.063     991.6984     3303.343     712.9787     2277.598     1406.442     2342.478     3290.763      4219.32     4674.208
    55.5033    185.5033 213.2264648 -10.2709013  99.0000     1.51    2.646  99.0000  99.0000  99.0000  99.0000  99.0000  99.0000  99.0000  99.0000  99.0000  99.0000    -977.3344    -2687.032     -7390.47      -9966.8     -13124.5      1394.47      2335.31     3268.613     4202.068     4694.486
   292.4943    183.5057 213.2177677 -10.2709735  -7.1908     1.51    2.646  -7.9206  -8.3014  -8.4443  -8.5100  -8.4486   1.0339   1.2123   1.4875   1.8001   2.1280     1473.078     2091.958     2386.312     2535.059     2395.738     1402.463     2335.311     3268.614     4202.069     4694.487
   180.2444    183.7759 213.2218824 -10.2709675  -8.2591     2.53    1.821  -8.6857  -8.1877  -7.0690  99.0000  99.0000   0.5125   1.3517   5.3069  99.0000  99.0000     2980.368     1883.971     672.3793    -1475.801    -2315.277     1406.443     2344.862     3285.664      4219.32     4683.761
   124.3023    183.0932 213.2239400 -10.2709884  -8.8038     2.52    4.513  -7.9348  -7.1946  99.0000  99.0000  99.0000   1.0147   3.3566  99.0000  99.0000  99.0000     1492.517     754.8038     -1947.27    -3272.062    -1657.785     1394.472     2332.916     3268.613     4202.068     4695.676
   246.5381    182.4619 213.2194542 -10.2710112  -7.8885     1.51    2.639  -8.0606  -7.7160  -3.1448  99.0000  -5.7339   0.9089   2.0872 196.7328  99.0000  25.8881     1675.818     1220.078     18.10926    -866.9648      196.583     1402.463     2344.862     3280.558     4215.345     4686.146
   229.4863    182.5137 213.2200799 -10.2710093  -8.4701     1.51    2.645  -7.7423  -7.6690  -7.7847  99.0000  -6.6857   1.2184   2.1706   2.7337  99.0000  10.7871     1250.072     1168.424     1299.862    -10.49724     472.3821     1402.463     2335.311     3272.031     4202.068     4692.105
   200.6821    181.9353 213.2211370 -10.2710302  -8.5908     3.65    1.773  -8.0618  -7.6590  -8.6751  -8.7608  -8.7903   0.9079   2.1906   1.2040   1.4324   1.5522     1677.661     1157.748     2951.434     3194.002     3281.936     1402.463     2335.311     3272.032     4212.694     4690.915
   192.9852    181.7351 213.2214349 -10.2710121  -8.2501     1.51    2.627  -7.9395  -8.3335  -8.4968  -8.4165  -8.4060   1.0190   1.1818   1.4240   1.9681   2.2104     1498.958     2154.862     2504.463     2325.983     2303.496     1406.442     2344.863     3283.964     4215.346     4688.531
   175.4032    182.5968 213.2220647 -10.2710063  -6.8069     1.50    2.603  -7.2050  -8.0122  -6.8271  99.0000  99.0000   2.0043   1.5840   6.6488  99.0000  99.0000     762.0476     1602.772     538.0626    -163.8058    -3244.289     1406.441     2337.702     3294.156     4224.614     4669.423
    98.1675    181.8325 213.2248991 -10.2710339  -6.5750     3.44    4.114  -6.5208  -7.4819  -7.8213  -7.8459  -7.5644   3.7851   2.5946   2.6501   3.3309   4.7984     405.8036     983.4551     1344.351     1375.216     1061.132     1414.364     2349.623     3280.559     4217.996     4688.531
   318.6188    181.3812 213.2168089 -10.2710502  -8.9937     1.50    2.581  -8.4621  -8.0795  -0.8463  -6.8561  99.0000   0.6332   1.4408 1482.7666   7.2235  99.0000     2425.736     1705.314      2.18036     552.6233    -416.5623     1414.366      2262.39     2976.948     3675.765     4008.797
   165.3878    181.3878 213.2224322 -10.2710500  -8.7408     1.50    2.588  -8.1028  -8.3085  -8.9287  -8.3818  -5.9398   0.8766   1.2081   0.9556   2.0339  21.3821     1742.363     2105.782     3728.054     2252.853      237.646     1406.442     2342.478      3280.56     4219.321     4678.987
   262.1084    180.7288 213.2188828 -10.2710737  -9.0100     2.52    4.174  -8.6018  -7.8870  -7.5373  -8.2504  -7.7735   0.5521   1.7793   3.4297   2.2900   3.9631     2758.722     1428.263     1034.992     1995.932     1286.422     1402.464     2340.091     3268.614     4208.713     4694.486
   179.4441    180.5559 213.2219164 -10.2710800  -8.6809     1.51    2.632  -8.1126  -8.1100  -8.0343  99.0000  99.0000   0.8688   1.4520   2.1781  99.0000  99.0000     1758.068     1753.818     1635.709    -193.7578    -622.8694     1406.442     2344.862     3280.559     4215.345     4686.146
    85.5000    180.5000 213.2253640 -10.2710820  -6.7174     1.51    2.646  -7.5260  99.0000  -6.9400  99.0000  99.0000   1.4700  99.0000   5.9332  99.0000  99.0000     1024.249    -315.6939     597.0264    -4018.923    -5547.875     1386.434     2325.719     3261.768     4196.746     4699.245
   312.5536    182.5536 213.2170315 -10.2710078  -6.1439     1.51    2.633  -7.8334  -7.4755  99.0000  99.0000  99.0000   1.1236   2.6047  99.0000  99.0000  99.0000      1359.41     977.6465    -958.8892    -6161.892    -6928.019     1406.441     2344.862     3280.558     4215.345     4686.146
    82.7407    179.7932 213.2254557 -10.2711203  -8.5746     0.96    1.989  -8.0340  -7.8412  99.0000  99.0000  99.0000   0.9393   1.8616  99.0000  99.0000  99.0000     1635.238     1369.273    -2706.754    -3929.046    -4439.647     1414.365     2347.244      3277.15      4214.02     4682.568
   186.0000    177.5516 213.2216758 -10.2711885  -8.5934     0.96    1.992  99.0000  99.0000  99.0000  99.0000  99.0000  99.0000  99.0000  99.0000  99.0000  99.0000    -819.8666    -686.2621     -2448.16    -2507.339    -2930.604      1406.44     2347.243      3277.15      4216.67     4682.568
   157.7321    177.4494 213.2227132 -10.2711922  -7.7118     1.97    1.870  -7.5772  -7.4537  99.0000  99.0000  99.0000   1.4225   2.6574  99.0000  99.0000  99.0000     1073.728     958.2604    -2556.968    -2313.344    -3927.629     1406.441     2344.862     3282.261     4217.996     4683.761
   139.0000    176.4063 213.2234006 -10.2712298  99.0000     4.56    2.525  -7.1886  -7.8896  -5.9948  99.0000  99.0000   2.0347   1.7733  14.2958  99.0000  99.0000     750.6796     1431.674     249.9871    -2089.091     -612.312     1406.441     2337.702     3290.762     4221.968     4671.816
   256.9572    177.3852 213.2190526 -10.2712257  -8.7635     1.51    2.644  -8.1070  -8.6078  -8.7816  -8.8037  -9.1104   0.8659   0.9161   1.0915   1.3743   1.1562     1748.999     2773.981     3255.684     3322.753     4407.364     1394.472     2340.092     3272.032     4204.729     4692.106
   237.5369    176.4631 213.2197845 -10.2712278  -8.2467     1.51    2.640  -8.0965  -8.3506  -8.4512  -5.2891  -6.5521   0.8793   1.1609   1.4835  35.0777  12.1848     1732.206     2189.052     2401.529     130.5066     417.6638     1402.463     2340.092     3280.559     4215.345     4686.146
   116.4307    176.5693 213.2242289 -10.2712239  -8.2538     1.51    2.624  -8.5713  -8.8172  -8.9246  -8.8914  -8.7996   0.5726   0.7577   0.9592   1.2717   1.5367     2682.418     3364.259     3714.035     3601.974     3310.146     1414.366     2347.245      3280.56     4217.997     4683.762
    96.8026    176.1974 213.2249492 -10.2712374  -8.6068     3.44    4.099  -8.3498  -8.1837  -8.1537  -8.8304  -8.9764   0.6983   1.3525   1.9593   1.3472   1.3018     2187.313     1877.122     1825.855     3405.422     3895.514     1406.442     2337.702     3294.157     4224.615     4669.424
   286.4468    175.4468 213.2179896 -10.2712645  -8.1676     1.51    2.633  -7.8499  -7.4768  -8.1119  -8.6187  -9.0394   1.1129   2.6016   2.0277   1.6337   1.2322     1380.222     978.8243     1756.966     2802.158     4128.145     1414.365     2344.862     3280.559     4215.346     4683.762
   210.6954    173.8791 213.2207695 -10.2713211  -7.6704     3.62    1.809  -8.4554  -8.1977  -8.8693  99.0000  99.0000   0.6300   1.3366   1.0068  99.0000  99.0000     2410.759     1901.351     3529.564    -735.7428    -2495.346     1398.474     2340.092     3272.032     4202.068     4690.914
   175.0000    174.4591 213.2220795 -10.2713002  -8.4609     0.96    1.995  -6.1140  -7.1164  -8.1763  -8.3041  -8.2991   5.4745   3.6295   1.9130   2.1863   2.4348     279.0028     702.3304     1864.256     2097.214     2087.542      1406.44     2347.243     3283.964     4221.969     4680.181
   121.3319    174.3906 213.2240439 -10.2712997  -8.3134     1.51    2.642  -8.1043  -7.1397  99.0000  99.0000  99.0000   0.8730   3.5344  99.0000  99.0000  99.0000      1744.73     717.5685    -623.2582    -1804.546    -2368.798     1402.463      2335.31     3273.738      4210.04     4687.339
   102.4106    174.5894 213.2247434 -10.2712954  -7.7027     1.51    2.609  -7.9713  99.0000  99.0000  99.0000  99.0000   0.9896  99.0000  99.0000  99.0000  99.0000      1543.52    -879.1009    -1458.321    -905.4077    -2482.596     1406.442     2342.477     3280.558      4219.32     4676.598
    94.0203    174.5834 213.2250530 -10.2712806  -9.1826     2.87    2.898  -8.6775  -9.0359  -9.2395  -9.5882  -9.3998   0.5193   0.6195   0.7177   0.6692   0.8834     2958.086     4114.949       4963.8     6843.261     5753.306     1414.367     2347.246      3280.56     4216.673     4680.183
   311.1969    173.8529 213.2170754 -10.2713167  -9.0377     0.95    1.939  -8.4402  -8.9914  -8.8912  -8.6527  -8.3100   0.6461   0.6454   0.9882   1.5829   2.4128     2377.298     3949.764     3601.518     2891.172     2108.656     1414.366     2347.245     3277.151     4214.021     4684.955
   214.4591    173.4591 213.2206314 -10.2713363  -8.5788     1.51    2.638  -8.1422  -8.3455  99.0000  99.0000  99.0000   0.8502   1.1688  99.0000  99.0000  99.0000       1806.6     2178.812    -1050.317    -451.0878    -623.7551     1414.365     2344.863     3280.558     4217.996     4688.531
   135.4584    173.5416 213.2235306 -10.2713333  -8.3457     1.51    2.638  -7.4676  -8.3442  -8.8783  99.0000  99.0000   1.5826   1.1702   1.0010  99.0000  99.0000     970.5674     2176.181     3558.964    -338.3138    -702.2946     1414.365     2344.863      3280.56     4217.996     4688.531
   131.7335    173.3697 213.2236719 -10.2713309  -8.5883     1.50    2.592  -8.4615  -8.7920  -8.1158  -8.1471  -8.1858   0.6300   0.7740   2.0225   2.5248   2.6992      2424.39     3286.913     1763.324     1814.844      1880.64     1406.443     2342.479     3283.964     4219.321     4674.208
   269.3906    172.7573 213.2186485 -10.2713615  -8.1226     4.06    2.779  -8.2608  -9.0305  -8.6005  -8.6486  -8.0504   0.7536   0.6200   1.2923   1.5909   3.0637     2015.252     4094.678     2755.485     2880.268     1660.242     1398.474     2337.704     3278.855     4219.321     4683.762
   190.4437    172.4437 213.2215127 -10.2713729  -7.0721     1.51    2.631  -7.5213  -7.4852  -7.6796  99.0000  99.0000   1.4892   2.5814   3.0194  99.0000  99.0000     1019.843     986.4724      1179.94    -902.1709    -2902.224     1398.473     2344.862     3280.559     4215.345     4688.531
   159.0000    172.4343 213.2226667 -10.2713733  -7.9548     0.96    1.987  -6.7134  99.0000  99.0000  99.0000  99.0000   3.1698  99.0000  99.0000  99.0000  99.0000     484.5682     -81.0188    -30.41282    -3639.254    -3665.604     1414.364     2347.243      3277.15     4211.367     4680.181
   144.4528    172.4528 213.2232005 -10.2713726  99.0000     1.51    2.636  -7.9773  -7.1212  -5.2243  99.0000  99.0000   0.9896   3.6169  28.9768  99.0000  99.0000     1552.161     705.5005     122.9498    -3709.233    -4558.667     1414.365     2349.623     3280.558     4217.996     4686.146
   201.4202    172.0000 213.2211099 -10.2713889  -8.9958     0.96    1.981  -7.3795  -8.4361  -8.7616  -7.1552  -6.6647   1.7067   1.0763   1.1147   6.2909  10.9644     894.9405     2368.316     3196.136     727.9199     463.3231     1406.441     2347.244      3280.56     4216.671     4677.792
   146.7266    171.4502 213.2230859 -10.2714043  -9.3714     5.09    3.441  -8.0677  -8.7803  -8.6867  -8.9200  -8.9530   0.9105   0.7839   1.1930   1.2386   1.3336     1686.928     3251.879     2983.124     3698.194     3812.325     1414.365     2347.245     3277.151     4217.997     4681.375
   141.4550    171.4550 213.2233105 -10.2714086  99.0000     1.51    2.637  -6.4294  99.0000  -8.0896  99.0000  99.0000   4.1174  99.0000   2.0699  99.0000  99.0000     373.0551    -1450.701     1721.191    -1491.468    -2203.097     1414.364     2349.622     3280.559     4220.644     4686.146
   115.9306    172.0094 213.2242591 -10.2713889  -7.2446     0.95    1.965  -7.3167  -8.2506  -7.9009  -7.5010  -5.5595   1.8084   1.2742   2.4677   4.5778  30.2970     844.6318      1996.44     1446.696     1000.955     167.4189     1406.441     2342.478     3287.365      4219.32      4670.62
   103.9449    171.8283 213.2246701 -10.2714037  -8.0502     1.50    2.608  -8.0644  -7.8377  -7.1680  99.0000  99.0000   0.9083   1.8639   4.8418  99.0000  99.0000     1681.686     1364.865     736.5747    -2923.456    -5594.247     1406.442     2342.478     3283.963      4219.32     4674.207
   286.2437    169.8167 213.2180245 -10.2714701  -8.3468     3.71    1.893  -8.5406  -7.3490  -6.9414  -8.6355  -8.9755   0.5807   2.9116   5.9503   1.6076   1.3076     2607.701     870.1454     597.8104     2845.877     3892.111     1394.473     2332.916     3275.444     4212.694     4686.147
   221.7767    170.6563 213.2203566 -10.2714363  -8.4521     3.65    1.789  -8.5317  -8.3789  99.0000  -7.8103  -8.8440   0.5872   1.1253  99.0000   3.4379   1.4755     2586.315      2246.73    -104.1609     1330.762     3448.214     1398.474     2328.122     3273.738     4212.694     4684.955
   305.4374    169.4374 213.2172927 -10.2714815  99.0000     1.51    2.628  -8.0325  99.0000  99.0000  99.0000  99.0000   0.9353  99.0000  99.0000  99.0000  99.0000     1632.978    -231.4707    -1763.572     -2462.05    -2861.703     1406.442     2344.861     3283.963     4215.345     4688.531
   272.0000    169.4943 213.2185198 -10.2714794  -8.0355     0.97    2.000  -7.6606  -7.4961  -7.6909  -8.6775  -9.0853   1.3174   2.5478   2.9852   1.5491   1.1791      1159.38     996.4269     1192.192      2957.99     4306.319     1406.441     2337.702      3277.15     4219.321     4675.404
   268.5098    169.4902 213.2186478 -10.2714796  -9.5987     1.51    2.645  -7.6482  -8.6420  -9.1485  -8.8007  -8.6207   1.3287   0.8859   0.7777   1.3773   1.8161     1146.283     2862.928     4564.389     3313.303     2807.203     1402.463     2335.312     3268.615      4202.07     4694.487
   165.4670    169.5330 213.2224293 -10.2714780  -6.4637     1.51    2.641  -7.2262  -4.9903  -8.5424  -7.3660  99.0000   1.9599  25.5902   1.3626   5.1792  99.0000     777.1115     99.10607     2611.883     883.8879    -717.8448     1402.462      2335.31     3277.151     4215.346     4687.339
   173.2105    169.0896 213.2221529 -10.2714816  -8.0598     0.96    1.987  -7.1390  99.0000  99.0000  -5.7488  99.0000   2.1418  99.0000  99.0000  22.9475  99.0000      717.166    -1727.089    -745.5503     199.3045    -1493.188     1414.365     2347.243      3277.15     4211.367     4680.181
   113.3962    167.8763 213.2243402 -10.2715378  -8.1693     2.52    4.497  -4.3547  99.0000  99.0000  99.0000  99.0000  27.6740  99.0000  99.0000  99.0000  99.0000     55.19243    -348.0687    -205.4901    -1928.052     -2331.83      1406.44     2344.861     3282.261      4219.32     4677.792
    92.4292    168.4292 213.2251097 -10.2715179  -7.1388     1.51    2.623  -7.4790  -4.8308  99.0000  99.0000  99.0000   1.5660  29.7887  99.0000  99.0000  99.0000     980.8284     85.57292     -1362.01    -1459.468    -1762.248     1414.365     2347.243     3280.558     4217.996     4681.375
   287.3455    165.9300 213.2179530 -10.2715896  -8.7041     1.51    2.631  -8.5977  -8.2788  -6.9054  99.0000  99.0000   0.5526   1.2429   6.1607  99.0000  99.0000     2748.323      2048.85     578.2922    -410.8554    -142.2798     1398.474     2344.862     3280.558     4215.345     4688.531
   252.2809    168.9396 213.2192434 -10.2714995  -8.5336     3.63    1.885  -8.3040  -7.1400  99.0000  -7.3612  -7.5300   0.7243   3.5295  99.0000   5.1989   4.9515     2096.973     717.8152    -913.0954     879.9922     1028.063     1398.474     2332.916     3275.444     4212.693     4687.339
   205.9527    166.6932 213.2209436 -10.2715806  99.0000     3.65    1.805  -8.1076  99.0000  99.0000  99.0000  99.0000   0.8654  99.0000  99.0000  99.0000  99.0000     1749.933    -370.0468    -213.2107    -1104.953    -555.3615     1394.472      2335.31     3272.031     4211.367     4684.954
   298.4976    168.5024 213.2175473 -10.2715152  -6.5820     1.51    2.646  -7.4839  99.0000  99.0000  99.0000  99.0000   1.5281  99.0000  99.0000  99.0000  99.0000     985.3112    -745.8997    -3444.843    -2643.353    -2782.255     1386.434      2335.31     3268.613     4202.068     4696.866
   120.9875    166.3354 213.2240616 -10.2715935  -8.5079     2.54    4.350  -8.4024  99.0000  99.0000  99.0000  99.0000   0.6652  99.0000  99.0000  99.0000  99.0000     2296.005    -787.8266    -2903.183    -5827.041    -7500.956     1406.442     2347.243     3282.261     4215.345     4680.181
    68.2212    166.9059 213.2260229 -10.2715860  99.0000     1.51    2.637  -7.8410  99.0000  99.0000  99.0000  99.0000   1.1220  99.0000  99.0000  99.0000  99.0000     1369.039    -2195.167    -3800.242    -9186.241     -12627.8     1414.365     2349.622     3280.558     4220.644     4688.531
    20.1316    164.5304 213.2277677 -10.2715897  -8.6977     0.96    1.989  -7.7418  -8.5738  -7.1165  99.0000  99.0000   1.2293   0.9481   5.0666  99.0000  99.0000     1249.482     2688.521     702.4426     -1403.48    -1702.953     1414.365     2347.245      3277.15      4214.02     4682.568
   281.4491    165.5509 213.2181730 -10.2716218  -9.0472     1.51    2.634  -8.1483  -8.3916  -8.2237  -6.8811  -6.7848   0.8454   1.1225   1.8293   8.1001   9.8343     1816.914     2273.181     1947.578     565.5188     517.4906     1414.365     2349.624     3280.559     4217.996     4686.146
   102.3280    165.6720 213.2247464 -10.2716174  -5.9227     1.48    2.508  -7.7118  -7.4003  99.0000  99.0000  99.0000   1.2532   2.7801  99.0000  99.0000  99.0000     1215.348     912.2458    -2566.519    -5071.297    -6973.501     1402.463      2335.31     3273.738      4210.04     4687.339
    92.4412    165.5588 213.2251092 -10.2716215  99.0000     1.51    2.630  -7.7455  99.0000  99.0000  99.0000  99.0000   1.2183  99.0000  99.0000  99.0000  99.0000     1253.696    -1927.884    -4701.395    -6129.206    -6607.362     1406.441     2344.861     3280.558     4215.345     4688.531
   278.4375    164.4375 213.2182835 -10.2716620  -7.9380     1.51    2.628  -7.3109  -6.8653  -3.6396  -8.3770  -8.4853   1.8180   4.5692 124.8503   2.0410   2.0547     840.1619     557.3245     28.56528      2242.92     2478.086     1406.441     2344.862     3283.963     4215.346     4688.531
   231.6101    167.9168 213.2200020 -10.2715364  -5.5961     5.06    3.635  -6.7174  -8.5123  -8.3956  -8.6398  -7.8964   3.1405   1.0023   1.5615   1.6028   3.5291     486.3607     2540.575     2281.652     2857.126     1440.598     1406.441     2344.863     3280.559     4216.671     4681.375
   234.0692    165.0095 213.2198978 -10.2716417  -8.0163     0.96    1.992  -8.1295  -8.4648  99.0000  99.0000  99.0000   0.8553   1.0483  99.0000  99.0000  99.0000     1785.715     2431.725    -227.2814    -4659.241     -7089.75     1406.442     2347.244      3277.15      4216.67     4682.568
   131.4930    164.4930 213.2236761 -10.2716600  -7.2555     1.51    2.646  -8.1591  99.0000  99.0000  99.0000  99.0000   0.8300  99.0000  99.0000  99.0000  99.0000      1835.02    -247.7999    -2659.764    -3274.824    -4885.432     1402.463      2335.31     3268.613     4199.408     4694.486
   257.7986    162.9515 213.2190409 -10.2717157  99.0000     4.36    1.666  -8.0358  -7.4550  -7.4853  -6.6478  -6.7978   0.9325   2.6570   3.6075  10.0388   9.7098     1638.035     959.3956     986.5494     456.1605     523.7267     1406.442     2347.244      3277.15     4216.671     4682.568
   220.4265    162.5735 213.2204124 -10.2717293  -7.6497     1.51    2.621  -7.0927  99.0000  99.0000  99.0000  99.0000   2.2351  99.0000  99.0000  99.0000  99.0000     687.2242    -1101.082    -2278.854    -2991.814    -2522.032     1414.364     2347.243      3277.15     4217.996     4681.375
   314.8258    161.0776 213.2169417 -10.2717682  -7.3480     0.97    2.000  -7.3910  99.0000  99.0000  99.0000  99.0000   1.6887  99.0000  99.0000  99.0000  99.0000     904.4856    -119.7805    -2087.454    -3995.792    -5299.846     1406.441     2337.701      3277.15      4219.32     4675.402
    19.0429    160.8509 213.2277839 -10.2717660  -8.7692     1.51    2.631  -8.4924  -8.9892  -9.1569  -8.9731  -8.6391   0.6089   0.6447   0.7737   1.1780   1.7842     2494.428     3941.609     4599.932     3883.645      2855.28     1398.474     2340.093     3277.152     4212.694     4690.915
   208.0900    160.9554 213.2208518 -10.2717862  -8.0125     0.96    1.993  -7.0584  99.0000  99.0000  99.0000  99.0000   2.2940  99.0000  99.0000  99.0000  99.0000     665.8195    -276.3259    -5767.205    -8695.478    -10034.03     1406.441     2347.243     3280.558      4219.32     4680.181
    71.6614    160.6614 213.2258718 -10.2717984  99.0000     1.48    2.525  99.0000  99.0000  99.0000  99.0000  99.0000  99.0000  99.0000  99.0000  99.0000  99.0000    -94.17422    -1195.051    -4816.013    -9599.961    -11751.59     1402.461     2344.861     3280.558     4215.345     4686.146
   232.5168    158.7722 213.2199687 -10.2718666  -7.8068     2.45    5.015  -8.0956  99.0000  99.0000  99.0000  99.0000   0.8800  99.0000  99.0000  99.0000  99.0000     1730.833    -149.5677      -4903.5    -9430.134    -11917.52     1402.463     2342.477     3280.558     4217.996     4683.761
   212.5030    159.4970 213.2207032 -10.2718404  -7.6283     1.51    2.646  -8.0125  -7.5158  99.0000  99.0000  99.0000   0.9392   2.4995  99.0000  99.0000  99.0000     1603.184     1014.681    -3120.806    -8534.022    -10268.81     1386.434      2335.31     3268.613     4202.068     4696.866
   108.5377    159.5377 213.2245185 -10.2718390  99.0000     1.51    2.639  -5.9569  99.0000  99.0000  99.0000  99.0000   6.3093  99.0000  99.0000  99.0000  99.0000     241.4021    -1476.569    -6494.143    -11414.73    -14112.68     1402.462     2344.861     3280.558     4215.345     4686.146
    96.9621    158.3870 213.2249433 -10.2718805  -7.9433     3.36    8.377  -7.5737  -8.2844  -6.8059  99.0000  99.0000   1.4392   1.2377   6.7520  99.0000  99.0000      1070.24     2059.544     527.6464    -585.4141    -968.0341      1418.31     2347.244     3280.558      4216.67     4683.761
   305.0311    147.9734 213.2172840 -10.2718827  99.0000     1.48    2.505  -7.6516  99.0000  99.0000  99.0000  99.0000   1.3246  99.0000  99.0000  99.0000  99.0000     1149.857    -2647.716    -7545.633    -8863.329    -11942.65     1402.463      2335.31     3270.322      4210.04     4687.339
   311.3914    161.9104 213.2170742 -10.2717533  -8.3057     2.52    4.634  99.0000  99.0000  99.0000  99.0000  99.0000  99.0000  99.0000  99.0000  99.0000  99.0000    -3.259002    -3202.452    -7563.909    -12145.85    -12536.67     1402.461     2344.861     3280.558     4217.996     4678.987
   268.4999    156.5001 213.2186482 -10.2719486  -8.5528     3.95    5.353  -7.7049  -7.7104  -7.8319  -9.0778  -8.7278   1.2467   2.0808   2.6092   1.0657   1.6472     1207.691     1213.826     1357.588     4276.732     3098.277     1386.434      2325.72     3261.769     4196.748     4699.246
   176.3568    157.6432 213.2220297 -10.2719074  99.0000     1.49    2.551  -7.2237  99.0000  99.0000  99.0000  99.0000   1.9588  99.0000  99.0000  99.0000  99.0000     775.3489    -1357.253    -2983.688     -4408.88    -4952.485     1398.472      2340.09      3277.15     4212.693     4688.531
   165.2877    156.8837 213.2224359 -10.2719348  99.0000     3.62    1.860  -5.8620  99.0000  99.0000  99.0000  99.0000   6.8854  99.0000  99.0000  99.0000  99.0000      221.202    -2010.518    -3336.709    -6285.813    -7251.583     1402.462      2335.31     3273.738     4204.727     4690.914
   168.0000    156.4455 213.2223364 -10.2719506  -7.9998     0.96    1.991  99.0000  99.0000  99.0000  99.0000  99.0000  99.0000  99.0000  99.0000  99.0000  99.0000    -1039.595    -2524.432    -5649.218    -9230.804    -10938.61     1414.364     2347.243      3277.15      4214.02     4682.568
   290.3365    155.0000 213.2178468 -10.2720028  -7.7229     0.94    1.918  -6.3391  99.0000  99.0000  99.0000  99.0000   4.4745  99.0000  99.0000  99.0000  99.0000      343.282    -2402.415    -2195.743     -3846.58    -3649.411     1414.364     2347.243     3283.963      4219.32     4682.568
   262.6272    153.3728 213.2188637 -10.2720616  99.0000     1.49    2.571  -7.9341  -8.0052  -7.9889  -7.1588  -7.6746   1.0298   1.6007   2.2710   6.2720   4.3288     1491.532     1592.504     1568.751     730.3453     1174.454     1414.365     2347.244     3280.559     4217.996     4681.375
   223.5095    153.5095 213.2202993 -10.2720566  -7.4494     1.51    2.645  -7.1099  -8.0580  99.0000  99.0000  99.0000   2.1815   1.5170  99.0000  99.0000  99.0000     698.1676     1671.796    -239.0681    -4244.952    -6272.979     1402.462     2335.311     3268.613     4202.068     4694.486
   122.0000    153.4116 213.2240245 -10.2720602  -7.7102     0.96    1.976  -7.0487  99.0000  99.0000  99.0000  99.0000   2.3146  99.0000  99.0000  99.0000  99.0000     659.8967    -85.58777    -621.5305    -2630.842    -2748.285     1406.441     2342.477     3283.963      4216.67      4670.62
   289.5447    152.4553 213.2178759 -10.2720947  -8.4596     1.51    2.637  -8.0305  -7.4423  99.0000  99.0000  99.0000   0.9423   2.6909  99.0000  99.0000  99.0000     1630.111     948.2645    -2267.322    -3131.754     -2624.65     1414.365     2349.623     3280.558     4220.644     4686.146
   226.5948    152.4052 213.2201860 -10.2720965  99.0000     1.50    2.605  -6.0041  99.0000  99.0000  99.0000  99.0000   6.0576  99.0000  99.0000  99.0000  99.0000     252.1441    -1356.414    -3666.857    -4239.873    -4889.008      1406.44     2342.477     3290.762      4219.32     4674.207
   181.0000    152.3945 213.2218593 -10.2720969  -8.2099     0.95    1.966  -6.6128  99.0000  99.0000  99.0000  99.0000   3.4579  99.0000  99.0000  99.0000  99.0000     441.7068     -332.166    -890.1417    -2429.091    -4541.118     1406.441     2337.701     3290.762     4224.614      4670.62
   105.5270    152.5270 213.2246290 -10.2720921  99.0000     1.51    2.642  -5.5080  -4.8587  99.0000  99.0000  99.0000   9.5396  28.8871  99.0000  99.0000  99.0000     159.6576     87.79522    -484.7817    -3778.638    -4904.701     1402.462      2335.31     3273.738      4210.04     4687.339
   283.5292    151.5292 213.2180967 -10.2721281  -7.5719     1.51    2.642  -7.6213  -8.1894  -9.1781  -9.0985  -8.9912   1.3621   1.3440   0.7579   1.0489   1.2897     1118.183     1886.994     4690.709     4359.023     3948.865     1402.463     2335.311      3273.74     4210.041     4689.724
   319.8181    150.1243 213.2167688 -10.2722076  -8.1706     4.20    2.482  -9.0525  -8.9489  -6.6552  99.0000  99.0000   0.3286   0.5574   6.1990  99.0000  99.0000     4178.387     3798.016     459.2829    -1290.876    -813.1001     1264.166     1949.282     2621.635     3289.063     3634.489
   240.2883    151.0933 213.2196835 -10.2721439  99.0000     3.63    1.859  -6.9371  99.0000  99.0000  99.0000  99.0000   2.5580  99.0000  99.0000  99.0000  99.0000      595.423    -1322.236    -2734.756    -8553.246    -12494.95     1402.462      2335.31     3268.613     4200.739     4694.486
   165.4587    149.4587 213.2224296 -10.2722029  -7.5803     1.51    2.638  -8.3488  -6.1185  99.0000  99.0000  99.0000   0.7029   9.0895  99.0000  99.0000  99.0000     2185.255     280.1618    -3392.633     -4048.96    -7513.315     1414.366     2344.861     3280.558     4217.996     4688.531
   267.4550    148.8357 213.2187011 -10.2722360  -8.3294     2.91    2.747  -8.3108  -8.7946  -8.4931  -8.3356  -7.7272   0.7279   0.7729   1.4273   2.1211   4.1303     2110.091     3294.914      2496.08     2158.968      1232.79     1414.366     2344.863     3280.559     4216.671     4688.531
   213.6288    148.3362 213.2206619 -10.2722434  -8.5385     2.53    1.848  -8.3358  -7.7610  99.0000  -7.6565  -8.6041   0.7073   2.0025  99.0000   3.9658   1.8398     2159.344     1271.696    -356.6039     1155.073     2764.768     1406.442     2344.862     3283.963     4217.996     4683.762
   205.4059    148.4059 213.2209636 -10.2722409  -8.3378     1.50    2.605  -7.3984  -7.0049  -7.9086  -9.2448  -9.1675   1.6773   4.0137   2.4503   0.9187   1.0928     910.6378     633.8069     1456.991     4987.852     4645.042     1406.441     2342.477     3287.365     4219.322     4674.208
    13.8174    148.6280 213.2279332 -10.2722372  -9.2984     1.51    2.645  -8.6466  -9.3355  -9.8524 -10.1351 -10.3014   0.5298   0.4677   0.4067   0.4027   0.3862     2875.005     5422.628     8728.846     11325.51     13199.54     1402.464     2335.313     3268.617     4199.412      4694.49
   207.4387    147.0000 213.2208890 -10.2722917  -8.2165     0.96    1.989  -6.5322  -6.7072  -8.1378  -7.6920  -7.8176   3.7456   5.2908   1.9779   3.8347   3.7954      410.081     481.8035     1799.399     1193.423     1339.845     1414.364     2347.243      3277.15      4214.02     4682.568
   181.4960    147.0000 213.2218411 -10.2722917  -6.6156     0.97    2.000  99.0000  99.0000  -2.2278  99.0000  99.0000  99.0000  99.0000 457.3223  99.0000  99.0000    -791.0352    -15.62452     7.782223    -3153.555    -4876.606      1406.44     2337.701      3277.15      4216.67     4675.402
   134.2620    145.3136 213.2236437 -10.2723503  -9.3521     1.50    2.575  -8.7801  -9.3873  -9.8602 -10.3524 -10.5829   0.4725   0.4482   0.4048   0.3311   0.2972     3251.067     5687.616     8791.447     13834.19     17106.18     1414.367     2347.246     3277.154         4218      4681.38
   135.6179    136.7910 213.2235239 -10.2726654 -15.6992     4.42    1.020 -14.4962 -15.0824 -15.3069 -15.4764 -15.5414   0.0024   0.0024   0.0027   0.0030   0.0031     628750.8      1078879      1326624      1550878      1646517     1411.044     2347.899     3281.136     4217.196     4684.263
   208.6354    137.0000 213.2208451 -10.2726528  -8.4120     0.95    1.944  -8.0519  -5.8790  99.0000  99.0000  99.0000   0.9239  11.3445  99.0000  99.0000  99.0000     1662.481     224.6996    -1042.561    -1410.262    -1343.734     1414.365     2347.243      3277.15     4211.367     4680.181
    97.2966    143.9306 213.2249311 -10.2724025  99.0000     3.64    1.835  -1.0857  99.0000  99.0000  99.0000  99.0000 557.1245  99.0000  99.0000  99.0000  99.0000     2.718234    -2835.606    -5822.642    -7705.427    -9049.973      1394.47      2340.09     3268.613     4207.384     4692.104
    11.6323    144.6184 213.2281520 -10.2723809 -10.4710     1.51    2.642  -8.6062  -9.2554 -10.0757 -10.6226 -10.8739   0.5498   0.5035   0.3316   0.2577   0.2277     2770.003      5036.64     10722.02     17743.15     22363.56     1402.464     2335.313     3273.742     4210.045     4689.729
   193.4458    131.5542 213.2214026 -10.2728494  99.0000     1.51    2.632  -7.1726  -4.7244  99.0000  -7.3165  -6.5341   2.0649  32.8227  99.0000   5.4208  12.3878     739.7013     77.58413    -90.10471     844.5003     410.8214     1406.441     2344.861     3280.558     4215.346     4686.146
   309.4896    143.4896 213.2171440 -10.2724184  -6.5351     1.51    2.645  -8.1111  99.0000  99.0000  99.0000  -5.2097   0.8675  99.0000  99.0000  99.0000  42.0267     1755.718    -107.9196    -2172.727    -623.4415     121.3088     1402.463      2335.31     3268.613     4202.068     4694.486
    10.8293    128.9764 213.2281160 -10.2728878 -10.3390     1.51    2.645  -8.8919  -9.5868 -10.1767 -10.6582 -10.8729   0.4226   0.3711   0.3017   0.2487   0.2282     3603.731     6834.998     11767.42     18334.36     22344.74     1402.465     2335.314     3268.618     4199.415     4694.493
   211.4628    141.4628 213.2207414 -10.2724916  -8.7817     1.51    2.639  -7.8141  99.0000  -8.2551  -8.7538  -7.2996   1.1405  99.0000   1.7772   1.4426   6.1207     1335.478    -14.06445     2004.617     3173.404     831.4604     1402.463     2344.861     3280.559     4215.346     4686.147
   220.2519    127.9941 213.2204509 -10.2729816  -7.8946     2.84    1.631  -8.4857  -8.0570  -7.6949  99.0000  99.0000   0.6109   1.5200   2.9773  99.0000  99.0000         2479     1670.253     1196.606    -707.9791    -2925.045     1394.473     2337.702     3280.559      4216.67     4677.792
   144.0145    133.3423 213.2232024 -10.2728478 -10.2255     1.50    2.601  -9.0022  -9.6121  -9.7843 -10.3539 -10.5065   0.3829   0.3629   0.4364   0.3312   0.3180     3988.987     6995.913     8198.051     13853.47     15944.38     1406.444     2337.706      3294.16     4224.619     4669.428
   282.4870    127.4870 213.2181349 -10.2729963  -7.9997     1.51    2.645  -8.3326  -7.4575  99.0000  99.0000  99.0000   0.7075   2.6375  99.0000  99.0000  99.0000     2152.898     961.5715     -298.601    -1672.693    -3487.558     1402.464      2335.31     3272.031     4202.068     4692.105
   208.5072    126.5283 213.2208498 -10.2730309  -7.4606     4.39    2.262  -7.9805  -8.4538  -8.0170  -7.9874  99.0000   0.9757   1.0557   2.2049   2.9156  99.0000     1556.631     2407.179     1609.919      1566.67    -6.818922     1398.473     2340.092     3268.614     4206.057     4693.295
   112.0000    141.5322 213.2243915 -10.2724891  -7.1990     0.96    1.997  99.0000  -6.3238  99.0000  99.0000  99.0000  99.0000   7.5313  99.0000  99.0000  99.0000    -110.8361     338.4695    -2517.532    -5851.775    -8519.094     1414.364     2347.243     3283.963      4219.32     4680.181
   285.5174    140.0000 213.2180237 -10.2725444  -7.5403     0.96    1.999  -7.8561  -5.1236  -8.0625  -8.0519  -8.6241   1.1065  22.7474   2.1221   2.7562   1.8030     1388.189     112.0616     1678.846     1662.494       2816.1     1414.365     2347.243     3280.559     4219.321     4675.403
   146.9935    139.9488 213.2230509 -10.2725647  -7.1814     4.29    2.165  -8.3438  -9.0066  -9.4458  -9.6865  -9.7292   0.7021   0.6358   0.5939   0.6114   0.6526     2175.376     4005.479     6002.084     7491.845      7792.48     1406.442     2344.864     3282.263     4217.998      4682.57
   269.5337    125.4663 213.2186103 -10.2730693  99.0000     1.51    2.641  -6.5058  99.0000  99.0000  99.0000  99.0000   3.8055  99.0000  99.0000  99.0000  99.0000     400.2271    -3551.468    -6540.173    -9235.037    -13568.61     1402.462      2335.31      3277.15     4215.345     4687.339
   144.4058    142.6000 213.2231915 -10.2724667 -10.2960     3.28    1.534  -9.1805  -9.6426 -10.2103 -10.4990 -10.5636   0.3221   0.3518   0.2931   0.2890   0.3028     4701.174     7195.183     12136.98     15833.69     16805.76     1394.475     2330.524     3275.449     4214.025     4686.152
   166.4322    138.0000 213.2223939 -10.2726167  -6.8235     0.96    1.986  -7.2630  99.0000  99.0000  99.0000  99.0000   1.9108  99.0000  99.0000  99.0000  99.0000     803.8697    -192.3237    -2397.376    -6557.861    -8710.366     1414.365     2347.243      3277.15     4211.367     4680.181
   195.4396    124.4396 213.2213294 -10.2731064  -7.5243     1.51    2.629  -8.0616  99.0000  99.0000  -7.1997  -7.2193   0.9105  99.0000  99.0000   6.0365   6.5937     1677.456    -568.4678    -511.3461      758.361     772.2138     1406.442     2344.861     3283.963     4215.345     4688.531
   292.5264    123.4736 213.2177665 -10.2731412  -6.3843     1.51    2.643  -7.6172  99.0000  99.0000  99.0000  99.0000   1.3673  99.0000  99.0000  99.0000  99.0000     1113.955    -563.9165    -369.7097    -5156.048     -7936.33     1402.463      2335.31     3273.738      4210.04     4687.339
   202.8917    123.3019 213.2210559 -10.2731474  -6.8257     3.63    1.817  -8.2617  -5.9741  -8.3624  -9.4249  -9.6008   0.7509  10.3302   1.6041   0.7748   0.7366     2016.895     245.2566     2212.847     5887.921     6923.129     1394.472     2332.916     3268.614     4200.741     4695.678
    81.4356    123.5644 213.2255131 -10.2731379  99.0000     1.51    2.627  -5.6115  99.0000  99.0000  99.0000  99.0000   8.6967  99.0000  99.0000  99.0000  99.0000     175.6286    -3351.826    -5873.014    -14547.43    -17824.06      1406.44     2344.861     3283.963     4215.345     4688.531
   301.4522    122.4522 213.2174389 -10.2731781  -7.8782     1.51    2.635  -7.6651  -7.6085  99.0000  99.0000  99.0000   1.3193   2.3090  99.0000  99.0000  99.0000     1164.217     1105.094    -1288.089    -4068.626    -6034.026     1414.365     2349.623     3280.558     4220.644     4686.146
   217.5329    122.4671 213.2205186 -10.2731776  99.0000     1.51    2.641  -3.3219  99.0000  99.0000  99.0000  99.0000  71.4445  99.0000  99.0000  99.0000  99.0000     21.31828    -1537.068    -2762.658    -4543.622    -4537.261     1402.461      2335.31      3277.15     4215.345     4687.339
   245.5661    119.5661 213.2194898 -10.2732823  99.0000     1.51    2.626  99.0000  99.0000  99.0000  99.0000  99.0000  99.0000  99.0000  99.0000  99.0000  99.0000    -111.9447    -5026.239    -9219.624    -15955.29    -19989.66     1414.364     2349.622     3280.558     4217.996     4688.531
   224.4843    119.4843 213.2202635 -10.2732853  -7.0893     1.51    2.645  -5.2231  99.0000  99.0000  99.0000  99.0000  12.4021  99.0000  99.0000  99.0000  99.0000      122.808    -96.78567    -1948.365    -3763.441     -4513.79     1402.462      2335.31     3275.444     4204.727     4689.722
   162.6582    119.0000 213.2225324 -10.2733028  -7.0203     0.94    1.923  99.0000  99.0000  99.0000  99.0000  99.0000  99.0000  99.0000  99.0000  99.0000  99.0000    -1360.566    -4293.397    -3741.583    -6940.404    -8219.328      1406.44     2347.243     3283.963     4221.968     4680.181
   318.8078    117.3083 213.2168123 -10.2733579  -8.5117     1.51    2.643  -8.8791  -8.4048  -6.4183  99.0000  99.0000   0.4277   1.0701   8.8160  99.0000  99.0000     3561.474     2300.995       369.25    -347.0261    -1210.415     1402.465     2267.325     2997.524     3692.449     4043.493
   297.5996    112.3402 213.2175656 -10.2733591  -8.3898     0.96    1.989  -7.8287  -7.4989  99.0000  99.0000  99.0000   1.1348   2.5517  99.0000  99.0000  99.0000     1353.546     998.9862    -436.2408    -299.2456    -420.0153     1414.365     2347.244      3277.15      4214.02     4682.568
   218.0133    117.0460 213.2205015 -10.2733640  -8.1799     0.93    1.882  -8.2535  -8.3133  -7.8746  -5.0303  99.0000   0.7631   1.2003   2.5206  44.5602  99.0000     2001.687     2115.089     1411.957     102.8312     -2179.17     1406.442     2337.703      3277.15      4219.32     4675.402
   199.7710    117.5548 213.2211816 -10.2733389  -9.0052     0.96    1.997  -8.3363  -8.8062  -8.8032  -9.6272  -9.6119   0.7110   0.7670   1.0738   0.6459   0.7266     2160.297     3330.189     3321.196     7093.747     6994.856     1414.366     2352.001     3283.964     4219.322     4680.183
   179.4427    117.0968 213.2219164 -10.2733715  -7.8697     4.99    1.565  -8.4043  -8.5143  -8.3419  -5.9084  99.0000   0.6566   0.9964   1.6373  19.8424  99.0000     2299.862     2545.185     2171.422     230.8559    -1061.653      1390.46     2335.311     3273.739     4217.996     4683.761
   159.4602    118.0000 213.2226498 -10.2733389  -8.4232     0.96    1.995  -7.8540  -7.8458  99.0000  99.0000  99.0000   1.1024   1.8539  99.0000  99.0000  99.0000     1385.531      1375.03    -3239.215    -5616.089    -6684.415     1406.442     2347.244     3283.963      4219.32     4680.181
   118.4619    117.5381 213.2241543 -10.2733556  -8.3234     1.51    2.639  -8.1147  -7.4095  99.0000  99.0000  99.0000   0.8647   2.7678  99.0000  99.0000  99.0000     1761.424     920.0638    -3273.429    -9898.945    -13610.77     1402.463     2344.862     3280.558     4215.345     4686.146
   302.8711    117.0973 213.2173994 -10.2733750  -8.0806     0.96    1.998  -7.3824  -6.6709  99.0000  99.0000  99.0000   1.7021   5.4592  99.0000  99.0000  99.0000      897.373     465.9933    -3203.415    -6900.688    -8367.715     1406.441     2342.477     3283.963      4219.32     4675.402
   202.1529    114.8109 213.2210808 -10.2734603  -9.5274     4.01    7.483  -8.6417  -9.1040  -9.4085  -9.2788  -9.2838   0.5382   0.5812   0.6143   0.8901   0.9838     2862.003     4381.293      5799.43     5146.553     5170.268     1418.312     2344.864     3280.561     4217.997     4683.763
   196.3857    116.3857 213.2212947 -10.2733972  99.0000     1.50    2.586  -6.5337  -6.9495  -8.5835  -8.4121  -6.9167   3.7193   4.2237   1.3120   1.9780   8.6953     410.6696     602.2923     2712.584     2316.538       584.38      1406.44     2342.477     3277.151     4219.321     4678.987
   195.4484    114.0000 213.2213291 -10.2734833  -7.5681     0.96    1.992  99.0000  99.0000  99.0000  99.0000  99.0000  99.0000  99.0000  99.0000  99.0000  99.0000    -60.72866     -1855.79    -2358.016        -2068    -1782.726      1406.44     2347.243      3277.15      4216.67     4682.568
   189.3766    112.6234 213.2215519 -10.2735330  -7.6639     1.50    2.576  -7.6684  -7.1279  99.0000  99.0000  99.0000   1.3153   3.5840  99.0000  99.0000  99.0000     1167.783      709.811    -414.5913    -85.52487    -552.1031     1414.365     2342.477      3277.15     4217.996     4681.375
   173.9849    111.9849 213.2221167 -10.2735561  99.0000     3.42    4.067  -7.7729  99.0000  -7.2361  -5.8802  99.0000   1.1879  99.0000   4.5383  20.3700  99.0000     1285.818    -753.4186     784.2138     224.9481    -1888.189     1406.441     2342.477      3277.15      4219.32     4681.375
   109.5086    113.0000 213.2244829 -10.2735194  -7.5501     0.97    2.000  99.0000  99.0000  99.0000  99.0000  99.0000  99.0000  99.0000  99.0000  99.0000  99.0000     -1221.78    -4185.012    -10249.82    -15339.96    -19021.47      1406.44     2342.477     3280.558      4219.32     4675.402
     8.8866    112.1836 213.2281489 -10.2735194 -10.4120     0.95    1.961  -9.0544  -9.9146 -10.4070 -10.8685 -11.0666   0.3649   0.2758   0.2451   0.2059   0.1899     4185.588     9243.166     14548.46     22253.28     26708.53     1406.444     2347.249     3283.969     4219.328     4670.627
   316.9264    113.0357 213.2168514 -10.2736083  -3.8496     1.51    2.639  -7.7497  -7.9571  -7.2266  99.0000  99.0000   1.2170   1.6715   4.5205  99.0000  99.0000     1258.609     1523.452     777.3975    -2592.785    -3773.339     1410.409     2344.862     3235.969     3987.834     4348.453
   205.4717    111.0000 213.2209612 -10.2735917  -6.1546     0.96    1.998  -4.0710  -7.9503  -7.6415  99.0000  99.0000  35.9376   1.6802   3.1306  99.0000  99.0000     42.50132     1514.046     1139.214    -2002.677    -777.7796      1406.44     2342.478     3283.963      4219.32     4675.402
   197.9506    108.5805 213.2212372 -10.2736790  -8.3425     2.39    1.546  -8.0948  -8.6336  -4.8628  99.0000  99.0000   0.8881   0.8982  40.4481  99.0000  99.0000     1729.573     2840.879     88.12621    -185.4687    -1682.835     1414.365     2349.624     3282.261     4215.345     4683.761
   174.5643    107.9884 213.2220955 -10.2737004  -7.0037     4.60    2.395  -7.6974  -1.5015  99.0000  99.0000  99.0000   1.2843 639.4308  99.0000  99.0000  99.0000     1199.338     3.986523    -751.5878    -2968.064    -3426.351      1418.31     2347.243     3280.558     4217.996     4683.761
   186.9152    106.7406 213.2216473 -10.2737587  -8.4857     4.31    1.694  -8.5552  -7.9719  -8.4519  -7.9275  -8.1080   0.5812   1.6505   1.4810   3.0908   2.9048     2642.935     1544.432     2403.105     1482.526     1750.659     1414.366     2347.244     3277.151     4219.321     4682.568
   204.5752    105.4248 213.2209941 -10.2737930  -7.0907     1.51    2.620  -7.5243  99.0000  99.0000  99.0000  99.0000   1.5020  99.0000  99.0000  99.0000  99.0000      1022.66    -249.6183    -669.5186    -1528.492    -1834.597     1414.365     2347.243      3277.15     4217.996     4681.375
    20.4581    105.5419 213.2277509 -10.2737887  99.0000     1.51    2.638  -7.2051  99.0000  99.0000  99.0000  99.0000   2.0154  99.0000  99.0000  99.0000  99.0000     762.1176    -581.2386     -1128.12    -1093.516    -1013.648     1414.365     2344.861     3280.558     4217.996     4688.531
   160.5605    104.4395 213.2226094 -10.2738286  99.0000     1.51    2.629  99.0000  99.0000  99.0000  99.0000  99.0000  99.0000  99.0000  99.0000  99.0000  99.0000    -188.9349    -1910.536    -6773.511    -5187.939    -4465.609      1406.44     2344.861     3283.963     4215.345     4688.531
   295.9759    103.0950 213.2176390 -10.2738651  -8.2464     0.96    1.984  -8.4434  -8.4783  99.0000  99.0000  99.0000   0.6442   1.0353  99.0000  99.0000  99.0000     2384.219     2462.235    -1394.015    -6624.055    -8211.427     1414.366     2347.244     3280.558      4216.67     4680.181
   315.9506    102.9152 213.2169050 -10.2738971  -7.7099     0.96    1.995  -7.9207  -7.6939  -7.6648  -8.4444  -8.2972   1.0368   2.1322   3.0641   1.9212   2.4177     1473.199     1195.507     1163.933     2386.597     2083.958     1406.442     2347.244     3283.963     4221.969      4639.41
   310.0000    102.4517 213.2171252 -10.2739003  -8.6840     0.96    1.993  -7.8043  -8.4903  -7.4467  99.0000  99.0000   1.1540   1.0239   3.7380  99.0000  99.0000     1323.517     2489.625      952.119    -255.1778    -915.3917     1406.441     2347.245      3277.15      4216.67     4680.181
   204.4351    102.5649 213.2209993 -10.2738963  -8.4145     1.51    2.627  -8.2785  -7.8088  -8.1386  99.0000  99.0000   0.7499   1.9199   1.9784  99.0000  99.0000     2048.369     1329.045     1800.765    -552.5307    -716.4988     1414.366     2349.623     3280.559     4215.345     4688.531
   153.9710    102.7355 213.2228875 -10.2738919  -8.2447     2.53    4.109  -8.2612  -8.2397  -8.2154  99.0000  99.0000   0.7555   1.2871   1.8443  99.0000  99.0000     2015.972     1976.475      1932.76    -5004.824    -7688.735     1402.464     2342.478     3282.262      4216.67     4681.375
   140.9413    102.4154 213.2233294 -10.2739016  99.0000     2.43    1.555  -8.0170  99.0000  99.0000  99.0000  99.0000   0.9514  99.0000  99.0000  99.0000  99.0000     1609.868    -1796.946     -2215.06    -4745.036    -6644.944     1410.409     2349.622     3282.261     4215.345     4682.568
    14.9806    102.4925 213.2279145 -10.2738966 -10.2494     0.96    1.991  -9.1810  -9.9348 -10.5105 -10.8999 -11.0109   0.3266   0.2707   0.2224   0.1998   0.2004     4703.086     9417.132      16002.4     22907.09     25372.99     1414.369     2347.249     3277.157     4214.027     4682.576
   293.9253    101.9762 213.2177287 -10.2739166  -7.5910     0.96    1.991  -8.1128  -7.5402  99.0000  99.0000  99.0000   0.8686   2.4564  99.0000  99.0000  99.0000     1758.412     1037.758    -1247.144    -2397.188    -4214.932     1406.442     2347.244     3280.558      4216.67     4682.568
    14.6655     99.1112 213.2279635 -10.2740209 -10.4939     3.56    9.711  -8.7525  -9.8311 -10.4460 -10.8784 -11.1135   0.4792   0.2963   0.2355   0.2037   0.1827     3169.506     8559.419     15080.16     22456.64     27886.75     1398.475     2335.315     3270.329     4211.374     4690.922
   289.6853     99.9819 213.2178707 -10.2739895  -8.3213     2.52    4.096  -7.8770  -8.1726  99.0000  99.0000  99.0000   1.0763   1.3691  99.0000  99.0000  99.0000     1415.117     1858.048    -1905.984    -2661.829    -2381.915     1402.463     2342.478     3280.558     4217.996     4680.181
   115.5687    102.5687 213.2242605 -10.2738961  -8.3961     1.51    2.624  -7.9488  -4.1907  99.0000  99.0000  99.0000   1.0160  53.7153  99.0000  99.0000  99.0000     1511.866     47.45591    -4798.515     -13758.9    -19993.94     1414.365     2347.243     3280.558     4217.996     4686.146
   292.3637     99.0014 213.2177724 -10.2740249  -8.3357     2.52    4.854  -7.6800  -5.4267  99.0000  99.0000  99.0000   1.3013  17.2079  99.0000  99.0000  99.0000     1180.362      148.136    -2373.715    -5457.991    -5644.605     1414.365     2347.243      3277.15     4212.693     4682.568
   198.1181     99.0501 213.2212354 -10.2740082  -7.8384     0.96    1.997  -7.9611  -8.0495  -8.8508  -8.3734  -6.6048   1.0045   1.5398   1.0278   2.0498  11.5981     1529.081     1658.883     3469.884     2235.467     438.4563     1414.365         2352     3283.964     4219.321     4682.568
   193.5528    100.0000 213.2213986 -10.2739889  -8.2799     0.96    1.992  -7.0391  -7.5186  -8.0913  -8.4146  -8.5494   2.3352   2.5058   2.0666   1.9722   1.9345     654.0769     1017.263     1723.907     2321.889     2628.779     1406.441     2347.244     3280.559     4216.671     4682.569
   316.0204     98.6699 213.2169043 -10.2740369  -9.1194     2.53    4.248  -8.4142  -8.6250  -8.5666  -9.3460  -9.7579   0.6599   0.9044   1.3346   0.8366   0.6295      2321.12     2818.447     2670.812     5475.295     8001.267      1410.41     2347.245     3282.262     4217.998     4638.208
   247.5171     98.4829 213.2194182 -10.2740436  99.0000     1.51    2.644  -6.3386  99.0000  99.0000  99.0000  99.0000   4.4390  99.0000  99.0000  99.0000  99.0000     343.1118    -1688.111      -4985.3     -9724.03    -12301.38     1402.462      2340.09     3272.031     4204.727     4692.105
     9.5603     98.4397 213.2281509 -10.2740451 -10.8446     1.51    2.629  -8.9615  -9.8695 -10.4625 -10.8655 -11.0869   0.3975   0.2872   0.2329   0.2063   0.1871     3842.353     8867.387     15311.46     22192.38     27210.93     1406.444     2344.866     3283.969     4215.353     4688.539
   192.1209     98.0464 213.2214383 -10.2740611  -6.5070     0.96    1.997  -7.3411  99.0000  99.0000  99.0000  99.0000   1.7682  99.0000  99.0000  99.0000  99.0000     863.8268    -329.5649    -685.4062    -1347.841    -967.6926     1406.441     2347.243     3283.963      4219.32     4677.792
   127.4286     97.5714 213.2238253 -10.2740766  99.0000     1.51    2.623  99.0000  99.0000  99.0000  99.0000  99.0000  99.0000  99.0000  99.0000  99.0000  99.0000     -618.524     -2616.16    -7381.425    -14287.17    -16199.35     1414.364     2347.243     3280.558     4217.996     4681.375
   185.5155     95.4845 213.2216936 -10.2741519  99.0000     1.51    2.645  -7.3074  99.0000  99.0000  99.0000  99.0000   1.8187  99.0000  99.0000  99.0000  99.0000     837.4716    -793.9867    -1481.819     -1755.75     -2702.09     1402.462      2335.31     3275.444     4204.727     4689.722
   163.6251     95.6251 213.2224969 -10.2741468  -7.2266     1.50    2.574  -6.0023  99.0000  99.0000  99.0000  99.0000   6.1020  99.0000  99.0000  99.0000  99.0000     251.7198    -2211.602    -5360.141    -5171.998    -3832.548     1414.364     2347.243      3277.15     4217.996     4681.375
   181.0000     93.4916 213.2218593 -10.2742239  -7.0851     0.97    2.000  99.0000  99.0000  99.0000  99.0000  99.0000  99.0000  99.0000  99.0000  99.0000  99.0000    -251.8787    -1565.932    -2406.066     -2669.71    -4407.056      1406.44     2342.477     3280.558      4219.32     4675.402
   312.0893     91.9699 213.2171252 -10.2742552  -6.9987     0.95    1.954  99.0000  99.0000  99.0000  99.0000  99.0000  99.0000  99.0000  99.0000  99.0000  99.0000     -375.341    -1295.912     -781.548    -3724.543     -4578.68      1406.44     2347.243     3280.558      4216.67     4677.792
   196.3744     92.6256 213.2212951 -10.2742552  -7.8859     1.50    2.573  -7.8425  99.0000  99.0000  99.0000  99.0000   1.1204  99.0000  99.0000  99.0000  99.0000     1370.887    -114.7891    -3331.155    -6973.188     -6983.99     1414.365     2347.243      3277.15     4217.996     4681.375
    10.4389     92.4389 213.2281186 -10.2742618 -10.4494     1.51    2.629  -8.8020  -9.4231  -9.9729 -10.5754 -10.8391   0.4604   0.4332   0.3657   0.2695   0.2351     3317.325     5878.231     9753.089     16988.71     21659.87     1406.443     2344.865     3283.967     4215.351     4688.537
   150.6132     92.0000 213.2229744 -10.2742777  -8.5630     0.95    1.961  -7.8821  99.0000  99.0000  99.0000  99.0000   1.0743  99.0000  99.0000  99.0000  99.0000     1421.744    -2045.149    -3594.487    -7047.953    -8050.017     1406.442     2347.243     3283.963      4219.32      4670.62
   300.3574     88.5804 213.2174809 -10.2743852  -7.9042     3.65    1.801  -8.1612  -7.8641  -8.0133  99.0000  99.0000   0.8237   1.8173   2.2218  99.0000  99.0000     1838.501     1398.407     1604.365    -698.4209     -1434.26     1394.472     2340.091     3282.262      4216.67     4678.987
   167.5238     89.5238 213.2223538 -10.2743672  -3.3925     1.51    2.643  -6.5789  -5.0365  99.0000  99.0000  99.0000   3.5374  24.5229  99.0000  99.0000  99.0000     428.1092     103.4195    -2377.448    -7731.134    -11495.51     1394.471      2335.31     3272.031      4210.04     4689.722
   319.9646     88.3303 213.2167880 -10.2744235  -8.4445     4.33    1.586  -8.5268  -8.5168  -8.2138  -8.8411  -9.0695   0.5899   0.9023   1.5795   1.1006   0.9779     2574.665     2551.137     1929.864     3439.127     4244.234     1398.474     2119.571     2806.915     3485.375     3821.841
   220.0000     88.5573 213.2204281 -10.2744021  -8.2681     0.96    1.990  -7.6594  99.0000  99.0000  99.0000  99.0000   1.3263  99.0000  99.0000  99.0000  99.0000     1158.128    -1158.647    -1586.083    -5575.916    -6689.991     1414.365     2347.243      3277.15      4214.02     4682.568
   123.5918     88.5918 213.2239661 -10.2744008  -7.3476     1.50    2.607  -6.6724  99.0000  99.0000  99.0000  99.0000   3.2734  99.0000  99.0000  99.0000  99.0000     466.6058    -2633.175    -8206.498    -12447.72     -15319.7     1406.441     2342.477     3283.963      4219.32     4674.207
   209.0187     87.0114 213.2208150 -10.2744748  -7.5865     1.51    2.637  -8.2991  -2.7242  99.0000  99.0000  99.0000   0.7358 207.5529  99.0000  99.0000  99.0000     2087.625     12.29417    -2684.079    -7829.352    -9454.204     1414.366     2349.622     3280.558     4220.644     4688.531
   163.4697     87.0000 213.2225026 -10.2744583  -7.5398     0.96    1.997  -7.1360  -5.7070  99.0000  99.0000  99.0000   2.1357  13.2914  99.0000  99.0000  99.0000     715.1696     191.7864    -2319.531    -4150.402    -7105.974     1406.441     2347.243     3283.963      4219.32     4680.181
   179.5268     83.4732 213.2219134 -10.2745857  99.0000     1.51    2.642  -5.9520  99.0000  99.0000  99.0000  99.0000   6.3373  99.0000  99.0000  99.0000  99.0000     240.3341    -677.8442    -4219.039    -7778.026    -8201.156     1402.462      2335.31     3273.738      4210.04     4687.339
   128.3624     82.3624 213.2237910 -10.2746258  -7.8174     1.49    2.558  -8.0436  99.0000  99.0000  99.0000  99.0000   0.9258  99.0000  99.0000  99.0000  99.0000      1649.79    -2402.798    -7233.991    -12625.84    -16590.24     1406.442     2344.861     3283.963     4215.345     4688.531
   311.2723     80.8703 213.2170785 -10.2746796  -7.2307     3.60    1.909  -8.4993  -6.6286  -7.6487  99.0000  99.0000   0.6067   5.6587   3.1001  99.0000  99.0000     2510.227      448.183     1146.816    -954.7336    -3265.665     1402.464      2335.31     3273.738      4210.04     4688.531
   185.3523     81.3523 213.2216996 -10.2746622  -7.2418     1.49    2.545  -7.8978  -6.0724  99.0000  99.0000  99.0000   1.0648   9.4836  99.0000  99.0000  99.0000     1442.541     268.5179    -3605.131     -5961.79    -7914.599     1414.365     2344.861     3280.558     4215.345     4686.146
   131.5512     81.4488 213.2236740 -10.2746587  99.0000     1.51    2.634  -0.0287  99.0000  99.0000  99.0000  99.0000 1495.9695  99.0000  99.0000  99.0000  99.0000     1.026758        -2749    -2282.388      -7348.2    -13205.21     1414.364     2349.622     3280.558     4217.996     4686.146
   313.3799     79.3799 213.2170011 -10.2747334  -7.8500     1.50    2.580  -7.3769  99.0000  99.0000  99.0000  99.0000   1.7204  99.0000  99.0000  99.0000  99.0000     892.8409    -628.7667    -3456.607    -6358.132    -6083.967     1414.365     2347.243      3277.15     4220.644     4683.761
   262.0000     79.5485 213.2188867 -10.2747274  -7.9621     0.96    1.993  -3.6851  99.0000  99.0000  99.0000  99.0000  51.2735  99.0000  99.0000  99.0000  99.0000     29.78917    -1053.857    -4949.926    -9133.795    -12507.65      1406.44     2347.243      3277.15      4216.67     4680.181
   124.5677     81.5677 213.2239303 -10.2746545  99.0000     1.51    2.625  99.0000  99.0000  99.0000  99.0000  99.0000  99.0000  99.0000  99.0000  99.0000  99.0000     -981.101    -2809.508    -5643.025    -11420.05    -17091.58     1414.364     2349.622     3280.558     4217.996     4686.146
   181.4422     77.4422 213.2218431 -10.2748034  -8.2057     1.51    2.631  -7.5912  -7.2502  99.0000  99.0000  99.0000   1.3964   3.1988  99.0000  99.0000  99.0000     1087.613     794.4568    -1409.033    -4784.502    -7036.446     1398.473     2340.091     3280.558     4215.345     4690.914
   216.5538     76.4462 213.2205545 -10.2748394  99.0000     1.51    2.633  -5.1687  99.0000  99.0000  99.0000  99.0000  13.0761  99.0000  99.0000  99.0000  99.0000     116.8077    -3744.545    -6457.747    -9800.214    -12925.15      1406.44     2344.861     3280.558     4215.345     4686.146
   172.9446     76.0766 213.2221529 -10.2748375  -8.0492     0.97    2.000  -6.9991  99.0000  99.0000  99.0000  99.0000   2.4228  99.0000  99.0000  99.0000  99.0000     630.4189    -204.0618    -3113.815    -8428.184    -12227.53     1406.441     2337.701      3277.15      4216.67     4673.012
   229.0000     75.4639 213.2200978 -10.2748749  -7.7535     0.96    1.996  -5.1870  99.0000  99.0000  99.0000  99.0000  12.9295  99.0000  99.0000  99.0000  99.0000     118.7981    -3356.042    -8553.237    -12990.34    -15645.46     1414.364     2347.243     3283.963      4219.32     4682.568
   319.8013     84.0249 213.2167795 -10.2748916  -8.3485     0.96    1.980  -7.8779  -8.0404  -7.0528  99.0000  99.0000   1.0349   1.3569   4.4762  99.0000  99.0000     1416.347      1644.95     662.4015    -1217.159    -2221.022     1349.674     2055.326     2730.219     3402.628     3722.592
   316.5994     69.5994 213.2168830 -10.2750866  -8.7812     1.50    2.601  -8.5532  -6.2748  99.0000  99.0000  99.0000   0.5790   7.8473  99.0000  99.0000  99.0000     2638.005     323.5196    -664.9854    -4275.657    -5529.139     1406.443     2337.701     3297.547     4161.984     4534.647
   236.0000     69.5105 213.2198409 -10.2750898  99.0000     0.96    2.000  99.0000  99.0000  99.0000  99.0000  99.0000  99.0000  99.0000  99.0000  99.0000  99.0000    -760.9089    -1741.093    -2675.961    -11849.89    -16801.62      1406.44     2347.243     3280.558      4219.32     4677.792
   213.9725     68.0621 213.2206482 -10.2751308  -7.8267     0.95    1.954  -7.9502  99.0000  99.0000  99.0000  99.0000   1.0090  99.0000  99.0000  99.0000  99.0000     1513.816     -408.065    -3359.527    -5428.973    -7512.364     1406.442     2347.243     3280.558      4216.67     4677.792
   315.4732     65.0000 213.2169243 -10.2752527  -7.5772     0.96    1.998  99.0000  99.0000  99.0000  99.0000  99.0000  99.0000  99.0000  99.0000  99.0000  99.0000    -682.5605    -2406.645    -5841.835     -9049.83    -9674.281      1406.44     2342.477     3280.558      4216.67     4675.402
   208.4639     64.4639 213.2208514 -10.2752721  99.0000     1.51    2.640  99.0000  99.0000  99.0000  99.0000  99.0000  99.0000  99.0000  99.0000  99.0000  99.0000    -319.0684    -1170.017    -3873.213     -7247.57    -9361.746     1402.461      2340.09      3277.15     4215.345     4686.146
    82.2918     63.9118 213.2254817 -10.2752920  -6.9610     2.53    4.333  -4.1387  99.0000  99.0000  99.0000  99.0000  33.6693  99.0000  99.0000  99.0000  99.0000     45.23627    -4915.838    -12724.05     -22563.5    -27979.87     1402.462      2335.31     3268.613     4200.739     4694.486
   305.0350     63.6708 213.2173074 -10.2753007  -8.2494     2.53    4.543  -7.6392  99.0000  99.0000  99.0000  99.0000   1.3435  99.0000  99.0000  99.0000  99.0000     1136.835    -1435.118    -2046.746    -5075.103    -5676.625     1406.441     2344.861     3285.664     4215.345     4684.954
   216.5053     63.5053 213.2205563 -10.2753067  99.0000     1.51    2.646  99.0000  99.0000  99.0000  99.0000  99.0000  99.0000  99.0000  99.0000  99.0000  99.0000    -230.9334    -4392.179    -7163.902    -12757.52    -14644.24     1402.461      2335.31     3268.613     4202.068     4694.486
   184.4096     63.4096 213.2217342 -10.2753101  99.0000     1.50    2.608  99.0000  99.0000  99.0000  99.0000  99.0000  99.0000  99.0000  99.0000  99.0000  99.0000    -251.1109    -3874.885    -7960.752    -10474.12    -12318.94      1406.44     2342.477     3280.558      4216.67     4676.598
   124.4642     63.4642 213.2239341 -10.2753082  99.0000     1.51    2.640  99.0000  99.0000  99.0000  99.0000  99.0000  99.0000  99.0000  99.0000  99.0000  99.0000    -804.9719    -4332.152    -8870.146    -15633.32    -21160.61     1402.461      2340.09      3277.15     4215.345     4686.146
   288.5392     61.5392 213.2179128 -10.2753777  99.0000     1.51    2.639  -7.7640  99.0000  99.0000  99.0000  99.0000   1.2011  99.0000  99.0000  99.0000  99.0000     1275.275    -541.3688    -1404.923    -1581.209     -2809.23     1410.409     2344.861     3280.558     4215.345     4686.146
   244.4684     61.4684 213.2195301 -10.2753802  99.0000     1.51    2.641  99.0000  99.0000  99.0000  99.0000  99.0000  99.0000  99.0000  99.0000  99.0000  99.0000    -864.0228    -3104.354    -7580.293    -13131.71    -16175.89     1402.461      2335.31      3277.15     4212.693     4687.339
   223.5411     61.4589 213.2202981 -10.2753806  99.0000     1.51    2.638  99.0000  99.0000  99.0000  99.0000  99.0000  99.0000  99.0000  99.0000  99.0000  99.0000    -669.0056    -2762.065    -5148.451    -7773.752    -10200.54     1414.364     2344.861     3280.558     4217.996     4688.531
   145.5659     61.4341 213.2231597 -10.2753815  99.0000     1.51    2.626  -4.5220  99.0000  99.0000  99.0000  99.0000  23.8558  99.0000  99.0000  99.0000  99.0000     64.38674    -713.0148    -1822.313    -5417.584    -9927.637     1414.364     2349.622     3280.558     4217.996     4688.531
   282.5549     58.4451 213.2181324 -10.2754894  -7.4846     1.51    2.632  -7.8411  -7.4395  99.0000  99.0000  99.0000   1.1157   2.6924  99.0000  99.0000  99.0000     1369.054     945.8203    -3289.614    -4860.119    -5505.851     1406.441     2344.862     3280.558     4215.345     4686.146
   255.0000     58.5357 213.2191436 -10.2754861  -6.5845     0.96    1.996  99.0000  99.0000  99.0000  99.0000  99.0000  99.0000  99.0000  99.0000  99.0000  99.0000    -435.8361    -2638.335     -5951.72    -10076.42    -11581.87     1414.364     2347.243     3283.963      4219.32     4682.568
   199.5242     58.4758 213.2211795 -10.2754883  -7.2335     1.51    2.643  -7.9328  99.0000  99.0000  99.0000  99.0000   1.0165  99.0000  99.0000  99.0000  99.0000     1489.753    -63.01639    -4194.358    -7376.379    -10629.36     1394.472      2335.31     3268.613      4210.04     4689.722
   136.4845     57.5155 213.2234930 -10.2755230  99.0000     1.51    2.645  -3.4300  99.0000  99.0000  99.0000  99.0000  64.6702  99.0000  99.0000  99.0000  99.0000      23.5514    -2533.021    -6713.365     -12494.8    -16847.75     1402.461      2335.31     3275.444     4204.727     4689.722
    16.4415     56.4415 213.2278984 -10.2755617  -9.8082     1.51    2.630  -8.5854  -9.0107  -9.5109 -10.0067 -10.2060   0.5621   0.6334   0.5590   0.4550   0.4214     2717.437     4020.379     6373.325     10061.73     12089.76     1406.443     2344.864     3280.561     4215.349     4690.917
   261.0000     53.5366 213.2189234 -10.2756667  -7.6725     0.96    1.996  99.0000  99.0000  99.0000  99.0000  99.0000  99.0000  99.0000  99.0000  99.0000  99.0000    -1181.605    -3392.844    -7731.802    -11687.57     -14720.1     1414.364     2347.243     3283.963      4219.32     4682.568
   302.5394     53.0000 213.2173990 -10.2756860  -7.8146     0.96    1.995  -6.3222  99.0000  99.0000  99.0000  99.0000   4.5192  99.0000  99.0000  99.0000  99.0000     337.9772    -1568.818    -5414.906     -10343.1    -13035.78      1406.44     2347.243     3283.963      4219.32     4680.181
   285.3918     47.3918 213.2180283 -10.2758885  -4.8332     1.50    2.592  -7.0770  99.0000  99.0000  99.0000  99.0000   2.2550  99.0000  99.0000  99.0000  99.0000     677.3516    -1941.412    -4846.771    -11015.06    -13201.34     1406.441     2342.477     3283.963      4219.32     4674.207
     5.2269     46.2095 213.2283052 -10.2759009 -10.2951     2.54    4.418  -8.6620  -9.3612  -9.9762 -10.5469 -10.7539   0.5253   0.4591   0.3642   0.2766   0.2536     2916.093     5552.372     9782.867     16548.37     20024.01      1410.41     2347.246     3280.562     4215.351     4676.604
   173.0000     44.5089 213.2221529 -10.2759927  -6.7592     0.96    2.000  99.0000  99.0000  99.0000  99.0000  99.0000  99.0000  99.0000  99.0000  99.0000  99.0000    -823.0809    -4233.879     -9146.76    -16225.27    -19218.26      1406.44     2347.243     3280.558      4219.32     4675.402
   297.4630     42.0000 213.2175853 -10.2760832  -7.1083     0.96    1.996  99.0000  99.0000  99.0000  99.0000  99.0000  99.0000  99.0000  99.0000  99.0000  99.0000    -1276.134    -3763.399    -7900.324     -12012.2    -14407.77     1414.364     2347.243     3283.963      4219.32     4682.568
    88.0000     40.4319 213.2252723 -10.2761399  99.0000     0.96    1.986  99.0000  99.0000  99.0000  99.0000  99.0000  99.0000  99.0000  99.0000  99.0000  99.0000    -3404.835    -10691.39    -15583.04     -26955.8    -33081.34     1414.364     2347.243      3277.15     4211.367     4680.181
   289.5146     40.0000 213.2178770 -10.2761554  -7.5041     0.96    1.999  99.0000  99.0000  99.0000  99.0000  99.0000  99.0000  99.0000  99.0000  99.0000  99.0000    -1244.527     -4434.57    -7598.257    -14952.16    -16302.21     1414.364     2347.243     3280.558      4219.32     4675.402
   186.1010     34.0982 213.2216637 -10.2763609  -7.6942     2.54    1.667  -7.1361  99.0000  99.0000  99.0000  99.0000   2.1235  99.0000  99.0000  99.0000  99.0000     715.2133    -2641.657    -8681.388    -15489.32    -19753.26     1398.472      2335.31     3270.322     4211.367     4694.486
   235.0014     31.6480 213.2198775 -10.2764571  99.0000     3.66    1.686  99.0000  99.0000  99.0000  99.0000  99.0000  99.0000  99.0000  99.0000  99.0000  99.0000    -879.4387    -5247.875    -8419.882    -18745.45    -23979.09      1406.44     2347.243     3278.854      4216.67     4682.568
     7.4532     30.9026 213.2282270 -10.2764804  -8.4690     0.96    2.000  -8.3302  -8.9039  -9.4127  -9.8081 -10.1203   0.7110   0.6996   0.6119   0.5468   0.4547     2148.228      3643.91     5822.272     8380.298     11171.56     1406.442     2347.245     3280.561     4219.323     4677.795
   196.5444     29.5444 213.2212888 -10.2765330  99.0000     1.51    2.637  99.0000  99.0000  99.0000  99.0000  99.0000  99.0000  99.0000  99.0000  99.0000  99.0000    -594.5642     -3815.86    -9903.017     -13318.3    -16001.02     1414.364     2349.622     3280.558     4220.644     4686.146
   215.4732     26.5268 213.2205942 -10.2766420  -7.2449     1.51    2.643  -6.4148  99.0000  99.0000  99.0000  99.0000   4.1381  99.0000  99.0000  99.0000  99.0000     368.0642    -2365.591     -4481.16    -10324.88    -12371.41     1402.462      2335.31     3273.738      4210.04     4687.339
   200.5458     26.5458 213.2211420 -10.2766413  99.0000     1.51    2.636  99.0000  99.0000  99.0000  99.0000  99.0000  99.0000  99.0000  99.0000  99.0000  99.0000    -157.4574    -3202.456    -5225.055     -10913.2    -12836.66     1414.364     2349.622     3280.558     4220.644     4686.146
   222.5798     25.0000 213.2203334 -10.2766971  -7.7886     0.96    1.981  99.0000  99.0000  99.0000  99.0000  99.0000  99.0000  99.0000  99.0000  99.0000  99.0000    -545.9415    -5712.183    -8227.578    -11460.89    -13378.12      1406.44     2347.243     3280.558      4216.67     4677.792
   135.4840     24.4840 213.2235297 -10.2767157  -4.5561     1.51    2.645  99.0000  99.0000  99.0000  99.0000  99.0000  99.0000  99.0000  99.0000  99.0000  99.0000    -433.6134     -2208.39    -10454.07    -20614.76    -29581.36     1402.461      2335.31     3275.444     4204.727     4692.105
   317.5482     23.2679 213.2168481 -10.2767596  -8.4600     3.32    6.230  -8.1512  99.0000  99.0000  99.0000  99.0000   0.8384  99.0000  99.0000  99.0000  99.0000     1821.691    -177.8584    -3050.867    -2870.962    -5861.852     1406.442     2344.861     3220.391      3966.76     4327.844
   131.0000     21.5127 213.2236942 -10.2768230  -7.0032     0.96    2.000  99.0000  99.0000  99.0000  99.0000  99.0000  99.0000  99.0000  99.0000  99.0000  99.0000    -1985.083    -5760.348     -9895.53    -17083.98    -21042.88      1406.44     2347.243     3283.963      4219.32     4677.792
   101.4530     21.5470 213.2247786 -10.2768218  99.0000     1.51    2.636  99.0000  99.0000  99.0000  99.0000  99.0000  99.0000  99.0000  99.0000  99.0000  99.0000    -757.8928    -4363.349    -10638.54     -17214.5    -21865.04     1414.364     2349.622     3280.558     4220.644     4686.146
   307.5010     20.4990 213.2172169 -10.2768596  -6.9646     1.51    2.646  -7.5751  99.0000  99.0000  99.0000  99.0000   1.4051  99.0000  99.0000  99.0000  99.0000     1071.569    -121.6932    -1890.955    -2083.107     -4382.78     1386.434     2325.719     3261.768     4196.746     4699.245
   129.6599     19.0000 213.2237434 -10.2769138  -8.2193     0.94    1.922  -5.9245  99.0000  99.0000  99.0000  99.0000   6.5183  99.0000  99.0000  99.0000  99.0000     234.3222    -2232.573    -6349.881    -13199.63    -17785.25      1406.44     2347.243     3283.963      4219.32     4680.181
   305.0603     17.3035 213.2173064 -10.2769750  -9.1245     2.47    3.866  -8.8854  -7.4648  99.0000  99.0000  99.0000   0.4240   2.6118  99.0000  99.0000  99.0000     3582.216     968.0632    -2339.377    -5985.378    -8458.316     1398.475     2328.121     3272.031      4210.04     4688.531
   295.4860     18.0000 213.2176578 -10.2769499  -6.6645     0.96    1.999  -7.4335  99.0000  99.0000  99.0000  99.0000   1.6330  99.0000  99.0000  99.0000  99.0000     940.5775    -249.2525    -2141.647    -8111.692    -9857.358     1414.365     2347.243     3280.558      4219.32     4675.402
   226.3882     17.3882 213.2201936 -10.2769720  99.0000     1.50    2.588  -7.9263  99.0000  99.0000  99.0000  99.0000   1.0314  99.0000  99.0000  99.0000  99.0000     1480.865    -935.4799    -3068.939    -4637.088    -4932.301     1406.442     2342.477     3280.558      4219.32     4676.598
   149.4604     17.5396 213.2230168 -10.2769665  -6.7662     1.51    2.639  -7.2897  99.0000  99.0000  99.0000  99.0000   1.8643  99.0000  99.0000  99.0000  99.0000     823.9236    -4405.669    -7195.325    -11853.26    -15312.18     1414.365     2344.861     3280.558     4217.996     4686.146
    98.0000     17.4474 213.2249053 -10.2769698  -8.1790     0.96    1.992  -7.3332  99.0000  99.0000  99.0000  99.0000   1.7810  99.0000  99.0000  99.0000  99.0000     857.6003    -805.5005    -5046.036    -13370.95    -17025.88     1406.441     2347.243     3280.558      4216.67     4682.568
     5.2183     17.3891 213.2283017 -10.2769697  -9.4459     1.51    2.635  -8.3469  -8.7531  -9.1411  -9.7022  -9.8233   0.7041   0.8046   0.7859   0.6030   0.5988     2181.552     3171.341     4533.543     7600.987     8498.392     1414.366     2349.624      3280.56     4220.647     4686.149
   257.5309     16.5309 213.2190507 -10.2770029  99.0000     1.51    2.641  99.0000  99.0000  99.0000  99.0000  99.0000  99.0000  99.0000  99.0000  99.0000  99.0000    -854.7158    -4243.867    -6433.586     -10624.9     -12974.2     1402.461      2335.31     3273.738      4210.04     4687.339
   125.4198     16.5802 213.2238990 -10.2770012  -5.5846     1.51    2.616  -6.8129  99.0000  99.0000  99.0000  99.0000   2.8922  99.0000  99.0000  99.0000  99.0000     531.0855    -962.9141    -5305.174    -8575.921    -8836.899     1414.364     2347.243      3277.15     4220.644     4683.761
   202.3926     14.6074 213.2210742 -10.2770724  -7.7375     1.50    2.593  -7.6994  -6.9331  99.0000  99.0000  99.0000   1.2711   4.2880  99.0000  99.0000  99.0000     1201.604     593.2708     -14.4609    -1527.427    -1927.468     1406.441     2342.477     3283.963      4219.32     4674.207
   138.5023     14.5023 213.2234189 -10.2770762  -8.1023     1.51    2.646  99.0000  99.0000  -7.1083  99.0000  99.0000  99.0000  99.0000   5.0920  99.0000  99.0000    -21.38052    -741.9565     697.1161    -1109.432    -794.4015     1386.433      2335.31     3268.614     4202.068     4696.866
